refreshrate(hz),screenresolutionvert(pixels),screenresolutionhori(pixels),screenwidth(cm),color_text,eccentricity,Stim_size,left-handed,age,gender,participant,language,TrialNumber,bgori,staircase,targetloc,cond,ran,order,resp,rt,acc,contrast
120,1200,1920,49,.75,1.5,0.75,False,30,male,SAAY1407,fr,1,0,1,1,2,1.0,0.0,0.0,0.7398944,0.0,0.011410550312757525
120,1200,1920,49,.75,1.5,0.75,False,30,male,SAAY1407,fr,2,0,2,1,2,1.0,1.0,1.0,0.4111918,1.0,0.011410550312757525
120,1200,1920,49,.75,1.5,0.75,False,30,male,SAAY1407,fr,3,0,2,1,2,1.0,2.0,0.0,0.5828415,0.0,0.006956757690467928
120,1200,1920,49,.75,1.5,0.75,False,30,male,SAAY1407,fr,4,0,1,0,2,1.0,3.0,0.0,0.3420375,1.0,0.03193728503137525
120,1200,1920,49,.75,1.5,0.75,False,30,male,SAAY1407,fr,5,0,2,0,2,1.0,4.0,0.0,0.3253759,1.0,0.019860687103523404
120,1200,1920,49,.75,1.5,0.75,False,30,male,SAAY1407,fr,6,0,1,0,2,1.0,5.0,0.0,0.387882,1.0,0.025185242205390552
120,1200,1920,49,.75,1.5,0.75,False,30,male,SAAY1407,fr,7,0,2,1,2,1.0,6.0,0.0,0.3870393,0.0,0.014758915330012263
120,1200,1920,49,.75,1.5,0.75,False,30,male,SAAY1407,fr,8,0,2,0,2,1.0,7.0,0.0,0.3093991,1.0,0.03131136535299098
120,1200,1920,49,.75,1.5,0.75,False,30,male,SAAY1407,fr,9,0,2,0,2,1.0,8.0,0.0,0.2971018,1.0,0.0256886996089088
120,1200,1920,49,.75,1.5,0.75,False,30,male,SAAY1407,fr,10,0,1,0,2,1.0,9.0,0.0,0.3121529,1.0,0.020662660803773863
120,1200,1920,49,.75,1.5,0.75,False,30,male,SAAY1407,fr,11,0,2,0,2,1.0,10.0,0.0,0.3028582,1.0,0.02192674732684322
120,1200,1920,49,.75,1.5,0.75,False,30,male,SAAY1407,fr,12,0,2,1,2,1.0,11.0,0.0,0.2838568,0.0,0.019860687103523404
120,1200,1920,49,.75,1.5,0.75,False,30,male,SAAY1407,fr,13,0,1,1,2,1.0,12.0,1.0,0.5307625,1.0,0.017636741035637882
120,1200,1920,49,.75,1.5,0.75,False,30,male,SAAY1407,fr,14,0,1,0,2,1.0,13.0,0.0,0.309358,1.0,0.015053948632856707
120,1200,1920,49,.75,1.5,0.75,False,30,male,SAAY1407,fr,15,0,1,0,2,1.0,14.0,0.0,0.3298822,1.0,0.009934240517826544
120,1200,1920,49,.75,1.5,0.75,False,30,male,SAAY1407,fr,16,0,2,0,2,1.0,15.0,0.0,0.3050298,1.0,0.02950625151774548
120,1200,1920,49,.75,1.5,0.75,False,30,male,SAAY1407,fr,17,0,2,1,2,1.0,16.0,0.0,0.2761998,0.0,0.026202221214116684
120,1200,1920,49,.75,1.5,0.75,False,30,male,SAAY1407,fr,18,0,2,0,2,1.0,17.0,0.0,0.3283917,1.0,0.03892762246529605
120,1200,1920,49,.75,1.5,0.75,False,30,male,SAAY1407,fr,19,0,2,1,2,1.0,18.0,1.0,0.3642505,1.0,0.035259645123964685
120,1200,1920,49,.75,1.5,0.75,False,30,male,SAAY1407,fr,20,0,1,0,2,1.0,19.0,0.0,0.3395401,1.0,0.00882183111215549
120,1200,1920,49,.75,1.5,0.75,False,30,male,SAAY1407,fr,21,0,1,1,2,1.0,20.0,0.0,0.2718101,0.0,0.007237671270027853
120,1200,1920,49,.75,1.5,0.75,False,30,male,SAAY1407,fr,22,0,1,1,2,1.0,21.0,0.0,0.3075176,0.0,0.014469664207771075
120,1200,1920,49,.75,1.5,0.75,False,30,male,SAAY1407,fr,23,0,2,1,2,1.0,22.0,1.0,0.426047,1.0,0.03193728503137525
120,1200,1920,49,.75,1.5,0.75,False,30,male,SAAY1407,fr,24,0,1,0,2,1.0,23.0,0.0,0.2810517,1.0,0.020257705717824762
120,1200,1920,49,.75,1.5,0.75,False,30,male,SAAY1407,fr,25,0,2,0,2,1.0,24.0,0.0,0.3513346,1.0,0.02950625151774548
120,1200,1920,49,.75,1.5,0.75,False,30,male,SAAY1407,fr,26,0,1,1,2,1.0,25.0,1.0,0.3020183,1.0,0.018715709851209905
120,1200,1920,49,.75,1.5,0.75,False,30,male,SAAY1407,fr,27,0,2,1,2,1.0,26.0,1.0,0.4138381,1.0,0.0256886996089088
120,1200,1920,49,.75,1.5,0.75,False,30,male,SAAY1407,fr,28,0,1,0,2,1.0,27.0,0.0,0.2446014,1.0,0.01729108913486021
120,1200,1920,49,.75,1.5,0.75,False,30,male,SAAY1407,fr,29,0,1,1,2,1.0,28.0,0.0,0.2953659,0.0,0.01629425032339594
120,1200,1920,49,.75,1.5,0.75,False,30,male,SAAY1407,fr,30,0,2,0,2,1.0,29.0,0.0,0.2942158,1.0,0.024207734900064604
120,1200,1920,49,.75,1.5,0.75,False,30,male,SAAY1407,fr,31,0,1,0,2,1.0,30.0,0.0,0.2770197,1.0,0.020257705717824762
120,1200,1920,49,.75,1.5,0.75,False,30,male,SAAY1407,fr,32,0,2,1,2,1.0,31.0,1.0,0.3316712,1.0,0.02373330203489854
120,1200,1920,49,.75,1.5,0.75,False,30,male,SAAY1407,fr,33,0,2,1,2,1.0,32.0,1.0,0.3037636,1.0,0.022812148451009043
120,1200,1920,49,.75,1.5,0.75,False,30,male,SAAY1407,fr,34,0,2,0,2,1.0,33.0,0.0,0.2669996,1.0,0.02192674732684322
120,1200,1920,49,.75,1.5,0.75,False,30,male,SAAY1407,fr,35,0,2,0,2,1.0,34.0,0.0,0.2788755,1.0,0.021075711012829217
120,1200,1920,49,.75,1.5,0.75,False,30,male,SAAY1407,fr,36,0,1,0,2,1.0,35.0,0.0,0.2781542,1.0,0.019089840169665778
120,1200,1920,49,.75,1.5,0.75,False,30,male,SAAY1407,fr,37,0,2,0,2,1.0,36.0,0.0,0.3243539,1.0,0.0183489118882868
120,1200,1920,49,.75,1.5,0.75,False,30,male,SAAY1407,fr,38,0,2,1,2,1.0,37.0,0.0,0.2966928,0.0,0.017636741035637882
120,1200,1920,49,.75,1.5,0.75,False,30,male,SAAY1407,fr,39,0,2,1,2,1.0,38.0,0.0,0.324933,0.0,0.02236506684693147
120,1200,1920,49,.75,1.5,0.75,False,30,male,SAAY1407,fr,40,0,1,1,2,1.0,39.0,1.0,0.3403567,1.0,0.01798930257846178
120,1200,1920,49,.75,1.5,0.75,False,30,male,SAAY1407,fr,41,0,2,0,2,1.0,40.0,0.0,0.274735,1.0,0.024691651761314246
120,1200,1920,49,.75,1.5,0.75,False,30,male,SAAY1407,fr,42,0,2,0,2,1.0,41.0,0.0,0.3424277,1.0,0.024207734900064604
120,1200,1920,49,.75,1.5,0.75,False,30,male,SAAY1407,fr,43,0,2,1,2,1.0,42.0,1.0,0.2582419,1.0,0.02373330203489854
120,1200,1920,49,.75,1.5,0.75,False,30,male,SAAY1407,fr,44,0,1,0,2,1.0,43.0,0.0,0.2973358,1.0,0.01729108913486021
120,1200,1920,49,.75,1.5,0.75,False,30,male,SAAY1407,fr,45,0,2,0,2,1.0,44.0,0.0,0.3281342,1.0,0.022812148451009043
120,1200,1920,49,.75,1.5,0.75,False,30,male,SAAY1407,fr,46,0,1,1,2,1.0,45.0,0.0,0.3277507,0.0,0.0166199752417109
120,1200,1920,49,.75,1.5,0.75,False,30,male,SAAY1407,fr,47,0,2,1,2,1.0,46.0,1.0,0.2619382,1.0,0.02236506684693147
120,1200,1920,49,.75,1.5,0.75,False,30,male,SAAY1407,fr,48,0,1,0,2,1.0,47.0,0.0,0.2933524,1.0,0.019089840169665778
120,1200,1920,49,.75,1.5,0.75,False,30,male,SAAY1407,fr,49,0,2,0,2,1.0,48.0,0.0,0.3476081,1.0,0.021497018167919782
120,1200,1920,49,.75,1.5,0.75,False,30,male,SAAY1407,fr,50,0,2,0,2,1.0,49.0,1.0,0.2959163,0.0,0.021075711012829217
120,1200,1920,49,.75,1.5,0.75,False,30,male,SAAY1407,fr,51,0,1,0,2,1.0,50.0,0.0,0.2474492,1.0,0.0183489118882868
120,1200,1920,49,.75,1.5,0.75,False,30,male,SAAY1407,fr,52,0,2,1,2,1.0,51.0,1.0,0.2776856,1.0,0.02373330203489854
120,1200,1920,49,.75,1.5,0.75,False,30,male,SAAY1407,fr,53,0,1,1,2,1.0,52.0,1.0,0.3011874,1.0,0.01798930257846178
120,1200,1920,49,.75,1.5,0.75,False,30,male,SAAY1407,fr,54,0,1,1,2,1.0,53.0,1.0,0.249126,1.0,0.017636741035637882
120,1200,1920,49,.75,1.5,0.75,False,30,male,SAAY1407,fr,55,0,2,1,2,1.0,54.0,1.0,0.3117898,1.0,0.02326816729466978
120,1200,1920,49,.75,1.5,0.75,False,30,male,SAAY1407,fr,56,0,2,1,2,1.0,55.0,1.0,0.2674205,1.0,0.022812148451009043
120,1200,1920,49,.75,1.5,0.75,False,30,male,SAAY1407,fr,57,0,2,0,2,1.0,56.0,0.0,0.3440251,1.0,0.02236506684693147
120,1200,1920,49,.75,1.5,0.75,False,30,male,SAAY1407,fr,58,0,1,1,2,1.0,57.0,1.0,0.318319,1.0,0.01729108913486021
120,1200,1920,49,.75,1.5,0.75,False,30,male,SAAY1407,fr,59,0,1,0,2,1.0,58.0,0.0,0.4348285,1.0,0.01629425032339594
120,1200,1920,49,.75,1.5,0.75,False,30,male,SAAY1407,fr,60,0,2,0,2,1.0,59.0,0.0,0.3141848,1.0,0.02192674732684322
120,1200,1920,49,.75,1.5,0.75,False,30,male,SAAY1407,fr,61,0,2,1,2,1.0,60.0,1.0,0.2857097,1.0,0.021075711012829217
120,1200,1920,49,.75,1.5,0.75,False,30,male,SAAY1407,fr,62,0,1,0,2,1.0,61.0,0.0,0.3165058,1.0,0.01566182643816842
120,1200,1920,49,.75,1.5,0.75,False,30,male,SAAY1407,fr,63,0,1,1,2,1.0,62.0,1.0,0.2643834,1.0,0.01535487970310756
120,1200,1920,49,.75,1.5,0.75,False,30,male,SAAY1407,fr,64,0,1,0,2,1.0,63.0,0.0,0.3872088,1.0,0.014758915330012263
120,1200,1920,49,.75,1.5,0.75,False,30,male,SAAY1407,fr,65,0,1,1,2,1.0,64.0,1.0,0.5432446,1.0,0.014469664207771075
120,1200,1920,49,.75,1.5,0.75,False,30,male,SAAY1407,fr,66,0,2,0,2,1.0,65.0,0.0,0.3258985,1.0,0.020257705717824762
120,1200,1920,49,.75,1.5,0.75,False,30,male,SAAY1407,fr,67,0,2,1,2,1.0,66.0,1.0,0.2970431,1.0,0.019860687103523404
120,1200,1920,49,.75,1.5,0.75,False,30,male,SAAY1407,fr,68,0,2,1,2,1.0,67.0,1.0,0.4283795,1.0,0.019471449418725976
120,1200,1920,49,.75,1.5,0.75,False,30,male,SAAY1407,fr,69,0,1,1,2,1.0,68.0,1.0,0.4193765,1.0,0.013908057440071123
120,1200,1920,49,.75,1.5,0.75,False,30,male,SAAY1407,fr,70,0,1,1,2,1.0,69.0,1.0,0.3023748,1.0,0.013368248148594363
120,1200,1920,49,.75,1.5,0.75,False,30,male,SAAY1407,fr,71,0,1,1,2,1.0,70.0,1.0,0.3859261,1.0,0.012849390314387626
120,1200,1920,49,.75,1.5,0.75,False,30,male,SAAY1407,fr,72,0,1,1,2,1.0,71.0,1.0,0.2697805,1.0,0.012350670754779419
120,1200,1920,49,.75,1.5,0.75,False,30,male,SAAY1407,fr,73,0,2,0,2,1.0,72.0,0.0,0.3492128,1.0,0.019089840169665778
120,1200,1920,49,.75,1.5,0.75,False,30,male,SAAY1407,fr,74,0,1,1,2,1.0,73.0,1.0,0.3001908,1.0,0.010967676021633076
120,1200,1920,49,.75,1.5,0.75,False,30,male,SAAY1407,fr,75,0,1,0,2,1.0,74.0,0.0,0.2951827,1.0,0.010132827726011519
120,1200,1920,49,.75,1.5,0.75,False,30,male,SAAY1407,fr,76,0,1,1,2,1.0,75.0,0.0,0.3154343,0.0,0.009739545301129157
120,1200,1920,49,.75,1.5,0.75,False,30,male,SAAY1407,fr,77,0,1,0,2,1.0,76.0,0.0,0.4770931,1.0,0.012849390314387626
120,1200,1920,49,.75,1.5,0.75,False,30,male,SAAY1407,fr,78,0,1,1,2,1.0,77.0,1.0,0.2965357,1.0,0.012597562826699979
120,1200,1920,49,.75,1.5,0.75,False,30,male,SAAY1407,fr,79,0,1,0,2,1.0,78.0,0.0,0.3242596,1.0,0.0121086173723749
120,1200,1920,49,.75,1.5,0.75,False,30,male,SAAY1407,fr,80,0,1,0,2,1.0,79.0,0.0,0.3350045,1.0,0.010967676021633076
120,1200,1920,49,.75,1.5,0.75,False,30,male,SAAY1407,fr,81,361,2,0,3,1.0,80.0,0.0,0.6109274,1.0,0.011410550312757525
120,1200,1920,49,.75,1.5,0.75,False,30,male,SAAY1407,fr,82,361,1,0,3,1.0,81.0,0.0,0.3534954,1.0,0.011410550312757525
120,1200,1920,49,.75,1.5,0.75,False,30,male,SAAY1407,fr,83,361,2,0,3,1.0,82.0,0.0,0.5127163,1.0,0.006956757690467928
120,1200,1920,49,.75,1.5,0.75,False,30,male,SAAY1407,fr,84,361,1,0,3,1.0,83.0,0.0,0.4392814,1.0,0.006956757690467928
120,1200,1920,49,.75,1.5,0.75,False,30,male,SAAY1407,fr,85,361,2,1,3,1.0,84.0,1.0,0.3745872,1.0,0.004682600487639664
120,1200,1920,49,.75,1.5,0.75,False,30,male,SAAY1407,fr,86,361,1,0,3,1.0,85.0,0.0,0.3654639,1.0,0.004682600487639664
120,1200,1920,49,.75,1.5,0.75,False,30,male,SAAY1407,fr,87,361,2,0,3,1.0,86.0,0.0,0.4204443,1.0,0.0034115464546677645
120,1200,1920,49,.75,1.5,0.75,False,30,male,SAAY1407,fr,88,361,1,0,3,1.0,87.0,1.0,0.3157569,0.0,0.0034115464546677645
120,1200,1920,49,.75,1.5,0.75,False,30,male,SAAY1407,fr,89,361,1,0,3,1.0,88.0,1.0,0.302256,0.0,0.0076804527103144565
120,1200,1920,49,.75,1.5,0.75,False,30,male,SAAY1407,fr,90,361,1,1,3,1.0,89.0,1.0,0.370799,1.0,0.019860687103523404
120,1200,1920,49,.75,1.5,0.75,False,30,male,SAAY1407,fr,91,361,1,0,3,1.0,90.0,0.0,0.4373997,1.0,0.015053948632856707
120,1200,1920,49,.75,1.5,0.75,False,30,male,SAAY1407,fr,92,361,2,0,3,1.0,91.0,0.0,0.4928632,1.0,0.002690292041773133
120,1200,1920,49,.75,1.5,0.75,False,30,male,SAAY1407,fr,93,361,2,1,3,1.0,92.0,1.0,0.3443175,1.0,0.0022071890938715104
120,1200,1920,49,.75,1.5,0.75,False,30,male,SAAY1407,fr,94,361,2,0,3,1.0,93.0,0.0,0.3791697,1.0,0.0019216204938273754
120,1200,1920,49,.75,1.5,0.75,False,30,male,SAAY1407,fr,95,361,2,1,3,1.0,94.0,1.0,0.3836296,1.0,0.0017064426241524917
120,1200,1920,49,.75,1.5,0.75,False,30,male,SAAY1407,fr,96,361,1,0,3,1.0,95.0,0.0,0.5025769,1.0,0.012350670754779419
120,1200,1920,49,.75,1.5,0.75,False,30,male,SAAY1407,fr,97,361,1,1,3,1.0,96.0,1.0,0.322955,1.0,0.010335384727275678
120,1200,1920,49,.75,1.5,0.75,False,30,male,SAAY1407,fr,98,361,1,1,3,1.0,97.0,1.0,0.284909,1.0,0.00882183111215549
120,1200,1920,49,.75,1.5,0.75,False,30,male,SAAY1407,fr,99,361,1,0,3,1.0,98.0,0.0,0.4877649,1.0,0.006820416372414831
120,1200,1920,49,.75,1.5,0.75,False,30,male,SAAY1407,fr,100,361,2,0,3,1.0,99.0,1.0,0.3427771,0.0,0.0015765499546808801
120,1200,1920,49,.75,1.5,0.75,False,30,male,SAAY1407,fr,101,361,1,1,3,1.0,100.0,1.0,0.4302747,1.0,0.006301253244993052
120,1200,1920,49,.75,1.5,0.75,False,30,male,SAAY1407,fr,102,361,1,1,3,1.0,101.0,1.0,0.408754,1.0,0.005707514078281028
120,1200,1920,49,.75,1.5,0.75,False,30,male,SAAY1407,fr,103,361,2,1,3,1.0,102.0,1.0,0.2797194,1.0,0.0021639317197267717
120,1200,1920,49,.75,1.5,0.75,False,30,male,SAAY1407,fr,104,361,2,0,3,1.0,103.0,0.0,0.491037,1.0,0.0019992154476111473
120,1200,1920,49,.75,1.5,0.75,False,30,male,SAAY1407,fr,105,361,1,1,3,1.0,104.0,1.0,0.3620274,1.0,0.005169720321851946
120,1200,1920,49,.75,1.5,0.75,False,30,male,SAAY1407,fr,106,361,1,0,3,1.0,105.0,0.0,0.5100975,1.0,0.004682600487639664
120,1200,1920,49,.75,1.5,0.75,False,30,male,SAAY1407,fr,107,361,1,0,3,1.0,106.0,1.0,0.4747582,0.0,0.004158255539870081
120,1200,1920,49,.75,1.5,0.75,False,30,male,SAAY1407,fr,108,361,1,1,3,1.0,107.0,1.0,0.3820128,1.0,0.005595655935901615
120,1200,1920,49,.75,1.5,0.75,False,30,male,SAAY1407,fr,109,361,1,1,3,1.0,108.0,1.0,0.2663972,1.0,0.0052730639366930995
120,1200,1920,49,.75,1.5,0.75,False,30,male,SAAY1407,fr,110,361,2,1,3,1.0,109.0,1.0,0.3774741,1.0,0.0018470372098763372
120,1200,1920,49,.75,1.5,0.75,False,30,male,SAAY1407,fr,111,361,2,1,3,1.0,110.0,1.0,0.3323701,1.0,0.0017405547111359067
120,1200,1920,49,.75,1.5,0.75,False,30,male,SAAY1407,fr,112,361,1,1,3,1.0,111.0,1.0,0.4756564,1.0,0.004969069506589162
120,1200,1920,49,.75,1.5,0.75,False,30,male,SAAY1407,fr,113,361,2,0,3,1.0,112.0,0.0,0.4273113,1.0,0.0016080654644475714
120,1200,1920,49,.75,1.5,0.75,False,30,male,SAAY1407,fr,114,361,1,1,3,1.0,113.0,1.0,0.275011,1.0,0.004682600487639664
120,1200,1920,49,.75,1.5,0.75,False,30,male,SAAY1407,fr,115,361,2,1,3,1.0,114.0,1.0,0.3383539,1.0,0.0014856611638834445
120,1200,1920,49,.75,1.5,0.75,False,30,male,SAAY1407,fr,116,361,2,0,3,1.0,115.0,1.0,0.2847928,0.0,0.0014279986395729066
120,1200,1920,49,.75,1.5,0.75,False,30,male,SAAY1407,fr,117,361,1,1,3,1.0,116.0,1.0,0.3800133,1.0,0.004412646532266771
120,1200,1920,49,.75,1.5,0.75,False,30,male,SAAY1407,fr,118,361,2,0,3,1.0,117.0,1.0,0.3947172,0.0,0.0017405547111359067
120,1200,1920,49,.75,1.5,0.75,False,30,male,SAAY1407,fr,119,361,2,0,3,1.0,118.0,1.0,0.3348769,0.0,0.0019992154476111473
120,1200,1920,49,.75,1.5,0.75,False,30,male,SAAY1407,fr,120,361,2,1,3,1.0,119.0,1.0,0.4663438,1.0,0.002485509759604288
120,1200,1920,49,.75,1.5,0.75,False,30,male,SAAY1407,fr,121,361,2,1,3,1.0,120.0,1.0,0.2933025,1.0,0.002342219040591588
120,1200,1920,49,.75,1.5,0.75,False,30,male,SAAY1407,fr,122,361,1,0,3,1.0,121.0,1.0,0.236103,0.0,0.003996862405967041
120,1200,1920,49,.75,1.5,0.75,False,30,male,SAAY1407,fr,123,361,1,0,3,1.0,122.0,0.0,0.4403547,1.0,0.004776206491663548
120,1200,1920,49,.75,1.5,0.75,False,30,male,SAAY1407,fr,124,361,1,0,3,1.0,123.0,1.0,0.3320268,0.0,0.004682600487639664
120,1200,1920,49,.75,1.5,0.75,False,30,male,SAAY1407,fr,125,361,2,0,3,1.0,124.0,0.0,0.3868408,1.0,0.0022071890938715104
120,1200,1920,49,.75,1.5,0.75,False,30,male,SAAY1407,fr,126,361,2,1,3,1.0,125.0,1.0,0.4714457,1.0,0.002079943682327365
120,1200,1920,49,.75,1.5,0.75,False,30,male,SAAY1407,fr,127,361,1,0,3,1.0,126.0,0.0,0.390058,1.0,0.0052730639366930995
120,1200,1920,49,.75,1.5,0.75,False,30,male,SAAY1407,fr,128,361,2,0,3,1.0,127.0,0.0,0.3887802,1.0,0.0019992154476111473
120,1200,1920,49,.75,1.5,0.75,False,30,male,SAAY1407,fr,129,361,2,1,3,1.0,128.0,1.0,0.3997127,1.0,0.0019216204938273754
120,1200,1920,49,.75,1.5,0.75,False,30,male,SAAY1407,fr,130,361,1,0,3,1.0,129.0,0.0,0.5346393,1.0,0.005068402076484144
120,1200,1920,49,.75,1.5,0.75,False,30,male,SAAY1407,fr,131,361,2,1,3,1.0,130.0,1.0,0.533532,1.0,0.0018839598072570712
120,1200,1920,49,.75,1.5,0.75,False,30,male,SAAY1407,fr,132,361,1,1,3,1.0,131.0,1.0,0.3882058,1.0,0.004969069506589162
120,1200,1920,49,.75,1.5,0.75,False,30,male,SAAY1407,fr,133,361,1,1,3,1.0,132.0,1.0,0.2959976,1.0,0.004776206491663548
120,1200,1920,49,.75,1.5,0.75,False,30,male,SAAY1407,fr,134,361,2,0,3,1.0,133.0,0.0,0.4154056,1.0,0.0018470372098763372
120,1200,1920,49,.75,1.5,0.75,False,30,male,SAAY1407,fr,135,361,2,0,3,1.0,134.0,0.0,0.6677385,1.0,0.0018108382363181948
120,1200,1920,49,.75,1.5,0.75,False,30,male,SAAY1407,fr,136,361,1,0,3,1.0,135.0,0.0,0.4267293,1.0,0.004682600487639664
120,1200,1920,49,.75,1.5,0.75,False,30,male,SAAY1407,fr,137,361,2,1,3,1.0,136.0,1.0,0.3535898,1.0,0.0017753487047137172
120,1200,1920,49,.75,1.5,0.75,False,30,male,SAAY1407,fr,138,361,2,1,3,1.0,137.0,1.0,0.2903084,1.0,0.0017405547111359067
120,1200,1920,49,.75,1.5,0.75,False,30,male,SAAY1407,fr,139,361,1,1,3,1.0,138.0,1.0,0.3615337,1.0,0.00459082901149991
120,1200,1920,49,.75,1.5,0.75,False,30,male,SAAY1407,fr,140,361,1,1,3,1.0,139.0,1.0,0.3502031,1.0,0.004500856109433489
120,1200,1920,49,.75,1.5,0.75,False,30,male,SAAY1407,fr,141,361,2,1,3,1.0,140.0,1.0,0.3415192,1.0,0.0017064426241524917
120,1200,1920,49,.75,1.5,0.75,False,30,male,SAAY1407,fr,142,361,2,1,3,1.0,141.0,1.0,0.2559376,1.0,0.0016729990794854522
120,1200,1920,49,.75,1.5,0.75,False,30,male,SAAY1407,fr,143,361,1,0,3,1.0,142.0,0.0,0.3665558,1.0,0.004412646532266771
120,1200,1920,49,.75,1.5,0.75,False,30,male,SAAY1407,fr,144,361,2,0,3,1.0,143.0,1.0,0.2539211,0.0,0.0016402109747752378
120,1200,1920,49,.75,1.5,0.75,False,30,male,SAAY1407,fr,145,361,2,1,3,1.0,144.0,1.0,0.377825,1.0,0.0018108382363181948
120,1200,1920,49,.75,1.5,0.75,False,30,male,SAAY1407,fr,146,361,2,0,3,1.0,145.0,1.0,0.2921807,0.0,0.0017753487047137172
120,1200,1920,49,.75,1.5,0.75,False,30,male,SAAY1407,fr,147,361,2,1,3,1.0,146.0,1.0,0.3599966,1.0,0.0018839598072570712
120,1200,1920,49,.75,1.5,0.75,False,30,male,SAAY1407,fr,148,361,1,1,3,1.0,147.0,1.0,0.3027362,1.0,0.004412646532266771
120,1200,1920,49,.75,1.5,0.75,False,30,male,SAAY1407,fr,149,361,1,1,3,1.0,148.0,1.0,0.2742958,1.0,0.004326165721653518
120,1200,1920,49,.75,1.5,0.75,False,30,male,SAAY1407,fr,150,361,1,0,3,1.0,149.0,0.0,0.3732446,1.0,0.004241379796535765
120,1200,1920,49,.75,1.5,0.75,False,30,male,SAAY1407,fr,151,361,2,1,3,1.0,150.0,1.0,0.3161246,1.0,0.0018470372098763372
120,1200,1920,49,.75,1.5,0.75,False,30,male,SAAY1407,fr,152,361,1,1,3,1.0,151.0,1.0,0.3709303,1.0,0.004076760385613912
120,1200,1920,49,.75,1.5,0.75,False,30,male,SAAY1407,fr,153,361,1,0,3,1.0,152.0,0.0,0.4534655,1.0,0.003841733375705851
120,1200,1920,49,.75,1.5,0.75,False,30,male,SAAY1407,fr,154,361,2,0,3,1.0,153.0,1.0,0.3398681,0.0,0.0018470372098763372
120,1200,1920,49,.75,1.5,0.75,False,30,male,SAAY1407,fr,155,361,1,1,3,1.0,154.0,0.0,0.6351636,0.0,0.0036926253222973665
120,1200,1920,49,.75,1.5,0.75,False,30,male,SAAY1407,fr,156,361,2,0,3,1.0,155.0,1.0,0.2578774,0.0,0.0019216204938273754
120,1200,1920,49,.75,1.5,0.75,False,30,male,SAAY1407,fr,157,361,2,0,3,1.0,156.0,1.0,0.453102,0.0,0.002079943682327365
120,1200,1920,49,.75,1.5,0.75,False,30,male,SAAY1407,fr,158,361,1,1,3,1.0,157.0,1.0,0.3566057,1.0,0.004326165721653518
120,1200,1920,49,.75,1.5,0.75,False,30,male,SAAY1407,fr,159,361,2,1,3,1.0,158.0,1.0,0.4196069,1.0,0.002251311190503024
120,1200,1920,49,.75,1.5,0.75,False,30,male,SAAY1407,fr,160,361,1,0,3,1.0,159.0,1.0,0.4029361,0.0,0.004241379796535765
120,1200,1920,49,.75,1.5,0.75,False,30,male,SAAY1407,fr,161,90,1,0,1,1.0,160.0,0.0,1.0708934,1.0,0.06016856135202387
120,1200,1920,49,.75,1.5,0.75,False,30,male,SAAY1407,fr,162,90,2,1,1,1.0,161.0,0.0,0.3732161,0.0,0.06016856135202387
120,1200,1920,49,.75,1.5,0.75,False,30,male,SAAY1407,fr,163,90,1,1,1,1.0,162.0,1.0,0.3960429,1.0,0.02950625151774548
120,1200,1920,49,.75,1.5,0.75,False,30,male,SAAY1407,fr,164,90,1,1,1,1.0,163.0,0.0,0.3643749,0.0,0.01566182643816842
120,1200,1920,49,.75,1.5,0.75,False,30,male,SAAY1407,fr,165,90,2,1,1,1.0,164.0,1.0,0.35575,1.0,0.18228250393864812
120,1200,1920,49,.75,1.5,0.75,False,30,male,SAAY1407,fr,166,90,2,0,1,1.0,165.0,0.0,0.5100416,1.0,0.14954954646180463
120,1200,1920,49,.75,1.5,0.75,False,30,male,SAAY1407,fr,167,90,1,1,1,1.0,166.0,0.0,0.4042811,0.0,0.06642775423169728
120,1200,1920,49,.75,1.5,0.75,False,30,male,SAAY1407,fr,168,90,1,1,1,1.0,167.0,1.0,0.3528259,1.0,0.18228250393864812
120,1200,1920,49,.75,1.5,0.75,False,30,male,SAAY1407,fr,169,90,2,0,1,1.0,168.0,1.0,0.5035027,0.0,0.12028991731550513
120,1200,1920,49,.75,1.5,0.75,False,30,male,SAAY1407,fr,170,90,1,0,1,1.0,169.0,0.0,0.4386905,1.0,0.14661861467057924
120,1200,1920,49,.75,1.5,0.75,False,30,male,SAAY1407,fr,171,90,1,0,1,1.0,170.0,0.0,0.4185017,1.0,0.12028991731550513
120,1200,1920,49,.75,1.5,0.75,False,30,male,SAAY1407,fr,172,90,1,0,1,1.0,171.0,0.0,0.365933,1.0,0.10066194775589994
120,1200,1920,49,.75,1.5,0.75,False,30,male,SAAY1407,fr,173,90,1,1,1,1.0,172.0,1.0,0.3298439,1.0,0.08592062375574905
120,1200,1920,49,.75,1.5,0.75,False,30,male,SAAY1407,fr,174,90,1,0,1,1.0,173.0,0.0,0.3336807,1.0,0.056699817612524815
120,1200,1920,49,.75,1.5,0.75,False,30,male,SAAY1407,fr,175,90,1,1,1,1.0,174.0,1.0,0.3060434,1.0,0.05035072526884501
120,1200,1920,49,.75,1.5,0.75,False,30,male,SAAY1407,fr,176,90,1,1,1,1.0,175.0,1.0,0.260479,1.0,0.039705792457535485
120,1200,1920,49,.75,1.5,0.75,False,30,male,SAAY1407,fr,177,90,2,1,1,1.0,176.0,0.0,0.4596678,0.0,0.20124492094022123
120,1200,1920,49,.75,1.5,0.75,False,30,male,SAAY1407,fr,178,90,2,1,1,1.0,177.0,1.0,0.2305686,1.0,0.30495846129566156
120,1200,1920,49,.75,1.5,0.75,False,30,male,SAAY1407,fr,179,90,1,1,1,1.0,178.0,1.0,0.2700747,1.0,0.0325757169537761
120,1200,1920,49,.75,1.5,0.75,False,30,male,SAAY1407,fr,180,90,2,1,1,1.0,179.0,1.0,0.3086479,1.0,0.28174533472756413
120,1200,1920,49,.75,1.5,0.75,False,30,male,SAAY1407,fr,181,90,2,1,1,1.0,180.0,1.0,0.2888926,1.0,0.25519772050509687
120,1200,1920,49,.75,1.5,0.75,False,30,male,SAAY1407,fr,182,90,2,1,1,1.0,181.0,1.0,0.2997287,1.0,0.2357723306969045
120,1200,1920,49,.75,1.5,0.75,False,30,male,SAAY1407,fr,183,90,1,1,1,1.0,182.0,1.0,0.2826212,1.0,0.0256886996089088
120,1200,1920,49,.75,1.5,0.75,False,30,male,SAAY1407,fr,184,90,2,0,1,1.0,183.0,0.0,0.345545,1.0,0.21355654889620218
120,1200,1920,49,.75,1.5,0.75,False,30,male,SAAY1407,fr,185,90,1,0,1,1.0,184.0,1.0,0.2643369,0.0,0.02192674732684322
120,1200,1920,49,.75,1.5,0.75,False,30,male,SAAY1407,fr,186,90,1,0,1,1.0,185.0,0.0,0.523225,1.0,0.035259645123964685
120,1200,1920,49,.75,1.5,0.75,False,30,male,SAAY1407,fr,187,90,1,0,1,1.0,186.0,0.0,0.5519331,1.0,0.03131136535299098
120,1200,1920,49,.75,1.5,0.75,False,30,male,SAAY1407,fr,188,90,2,1,1,1.0,187.0,1.0,0.4796885,1.0,0.18592636312377486
120,1200,1920,49,.75,1.5,0.75,False,30,male,SAAY1407,fr,189,90,2,1,1,1.0,188.0,1.0,0.3462832,1.0,0.17871005856239663
120,1200,1920,49,.75,1.5,0.75,False,30,male,SAAY1407,fr,190,90,1,0,1,1.0,189.0,1.0,0.4257273,0.0,0.027805203280453338
120,1200,1920,49,.75,1.5,0.75,False,30,male,SAAY1407,fr,191,90,1,0,1,1.0,190.0,1.0,0.2933886,0.0,0.03892762246529605
120,1200,1920,49,.75,1.5,0.75,False,30,male,SAAY1407,fr,192,90,2,0,1,1.0,191.0,0.0,0.3726516,1.0,0.16840734593483328
120,1200,1920,49,.75,1.5,0.75,False,30,male,SAAY1407,fr,193,90,1,1,1,1.0,192.0,1.0,0.210948,1.0,0.06016856135202387
120,1200,1920,49,.75,1.5,0.75,False,30,male,SAAY1407,fr,194,90,1,0,1,1.0,193.0,1.0,0.2629555,0.0,0.05558859192225047
120,1200,1920,49,.75,1.5,0.75,False,30,male,SAAY1407,fr,195,90,2,0,1,1.0,194.0,1.0,0.3260367,0.0,0.1618710017702884
120,1200,1920,49,.75,1.5,0.75,False,30,male,SAAY1407,fr,196,90,1,0,1,1.0,195.0,1.0,0.2695444,0.0,0.08763819207579797
120,1200,1920,49,.75,1.5,0.75,False,30,male,SAAY1407,fr,197,90,1,1,1,1.0,196.0,1.0,0.2813688,1.0,0.12514721905886855
120,1200,1920,49,.75,1.5,0.75,False,30,male,SAAY1407,fr,198,90,2,1,1,1.0,197.0,1.0,0.3046548,1.0,0.1973008425356974
120,1200,1920,49,.75,1.5,0.75,False,30,male,SAAY1407,fr,199,90,1,1,1,1.0,198.0,1.0,0.3191752,1.0,0.11335515124769421
120,1200,1920,49,.75,1.5,0.75,False,30,male,SAAY1407,fr,200,90,2,1,1,1.0,199.0,1.0,0.2473163,1.0,0.18964306369232664
120,1200,1920,49,.75,1.5,0.75,False,30,male,SAAY1407,fr,201,90,2,1,1,1.0,200.0,1.0,0.2428565,1.0,0.18228250393864812
120,1200,1920,49,.75,1.5,0.75,False,30,male,SAAY1407,fr,202,90,2,1,1,1.0,201.0,1.0,0.2786339,1.0,0.17871005856239663
120,1200,1920,49,.75,1.5,0.75,False,30,male,SAAY1407,fr,203,90,1,1,1,1.0,202.0,1.0,0.2296418,1.0,0.10472667292353503
120,1200,1920,49,.75,1.5,0.75,False,30,male,SAAY1407,fr,204,90,2,0,1,1.0,203.0,1.0,0.2288537,0.0,0.16840734593483328
120,1200,1920,49,.75,1.5,0.75,False,30,male,SAAY1407,fr,205,90,2,0,1,1.0,204.0,0.0,0.281234,1.0,0.19343406175631772
120,1200,1920,49,.75,1.5,0.75,False,30,male,SAAY1407,fr,206,90,1,1,1,1.0,205.0,1.0,0.2643588,1.0,0.09868913466602672
120,1200,1920,49,.75,1.5,0.75,False,30,male,SAAY1407,fr,207,90,2,0,1,1.0,206.0,1.0,0.3348296,0.0,0.18964306369232664
120,1200,1920,49,.75,1.5,0.75,False,30,male,SAAY1407,fr,208,90,2,1,1,1.0,207.0,1.0,0.2831319,1.0,0.217825581718471
120,1200,1920,49,.75,1.5,0.75,False,30,male,SAAY1407,fr,209,90,2,0,1,1.0,208.0,0.0,0.3349815,1.0,0.20937118228565132
120,1200,1920,49,.75,1.5,0.75,False,30,male,SAAY1407,fr,210,90,1,0,1,1.0,209.0,1.0,0.3018784,0.0,0.08763819207579797
120,1200,1920,49,.75,1.5,0.75,False,30,male,SAAY1407,fr,211,90,1,0,1,1.0,210.0,0.0,0.3604731,1.0,0.10895553152050205
120,1200,1920,49,.75,1.5,0.75,False,30,male,SAAY1407,fr,212,90,1,0,1,1.0,211.0,0.0,0.3800948,1.0,0.10472667292353503
120,1200,1920,49,.75,1.5,0.75,False,30,male,SAAY1407,fr,213,90,1,1,1,1.0,212.0,0.0,0.3437844,0.0,0.10267419772502775
120,1200,1920,49,.75,1.5,0.75,False,30,male,SAAY1407,fr,214,90,2,1,1,1.0,213.0,1.0,0.3194394,1.0,0.20124492094022123
120,1200,1920,49,.75,1.5,0.75,False,30,male,SAAY1407,fr,215,90,1,1,1,1.0,214.0,1.0,0.4383048,1.0,0.11793242743228484
120,1200,1920,49,.75,1.5,0.75,False,30,male,SAAY1407,fr,216,90,1,0,1,1.0,215.0,0.0,0.337822,1.0,0.11335515124769421
120,1200,1920,49,.75,1.5,0.75,False,30,male,SAAY1407,fr,217,90,1,1,1,1.0,216.0,1.0,0.3016233,1.0,0.10895553152050205
120,1200,1920,49,.75,1.5,0.75,False,30,male,SAAY1407,fr,218,90,2,1,1,1.0,217.0,1.0,0.3323116,1.0,0.1973008425356974
120,1200,1920,49,.75,1.5,0.75,False,30,male,SAAY1407,fr,219,90,2,0,1,1.0,218.0,0.0,0.3039672,1.0,0.18964306369232664
120,1200,1920,49,.75,1.5,0.75,False,30,male,SAAY1407,fr,220,90,1,1,1,1.0,219.0,1.0,0.351396,1.0,0.10472667292353503
120,1200,1920,49,.75,1.5,0.75,False,30,male,SAAY1407,fr,221,90,2,1,1,1.0,220.0,1.0,0.3262986,1.0,0.18592636312377486
120,1200,1920,49,.75,1.5,0.75,False,30,male,SAAY1407,fr,222,90,1,0,1,1.0,221.0,0.0,0.356563,1.0,0.10066194775589994
120,1200,1920,49,.75,1.5,0.75,False,30,male,SAAY1407,fr,223,90,2,0,1,1.0,222.0,0.0,0.3159098,1.0,0.18228250393864812
120,1200,1920,49,.75,1.5,0.75,False,30,male,SAAY1407,fr,224,90,2,0,1,1.0,223.0,0.0,0.3035878,1.0,0.17871005856239663
120,1200,1920,49,.75,1.5,0.75,False,30,male,SAAY1407,fr,225,90,2,0,1,1.0,224.0,0.0,0.2992545,1.0,0.17520762739864815
120,1200,1920,49,.75,1.5,0.75,False,30,male,SAAY1407,fr,226,90,2,1,1,1.0,225.0,1.0,0.3827655,1.0,0.17177383828087872
120,1200,1920,49,.75,1.5,0.75,False,30,male,SAAY1407,fr,227,90,2,1,1,1.0,226.0,1.0,0.2905139,1.0,0.15869858917265317
120,1200,1920,49,.75,1.5,0.75,False,30,male,SAAY1407,fr,228,90,2,0,1,1.0,227.0,0.0,0.3252284,1.0,0.15253906809296364
120,1200,1920,49,.75,1.5,0.75,False,30,male,SAAY1407,fr,229,90,2,0,1,1.0,228.0,0.0,0.351415,1.0,0.14954954646180463
120,1200,1920,49,.75,1.5,0.75,False,30,male,SAAY1407,fr,230,90,1,1,1,1.0,229.0,1.0,0.3183721,1.0,0.09675498555568446
120,1200,1920,49,.75,1.5,0.75,False,30,male,SAAY1407,fr,231,90,1,1,1,1.0,230.0,1.0,0.2984687,1.0,0.09485874267274703
120,1200,1920,49,.75,1.5,0.75,False,30,male,SAAY1407,fr,232,90,2,0,1,1.0,231.0,0.0,0.3046955,1.0,0.14661861467057924
120,1200,1920,49,.75,1.5,0.75,False,30,male,SAAY1407,fr,233,90,2,1,1,1.0,232.0,1.0,0.3085378,1.0,0.14374512445218396
120,1200,1920,49,.75,1.5,0.75,False,30,male,SAAY1407,fr,234,90,2,0,1,1.0,233.0,0.0,0.296012,1.0,0.14092795004371353
120,1200,1920,49,.75,1.5,0.75,False,30,male,SAAY1407,fr,235,90,2,0,1,1.0,234.0,0.0,0.3959682,1.0,0.1354581554882792
120,1200,1920,49,.75,1.5,0.75,False,30,male,SAAY1407,fr,236,90,2,0,1,1.0,235.0,0.0,0.4243317,1.0,0.11335515124769421
120,1200,1920,49,.75,1.5,0.75,False,30,male,SAAY1407,fr,237,90,1,0,1,1.0,236.0,0.0,0.3441506,1.0,0.09299966311581748
120,1200,1920,49,.75,1.5,0.75,False,30,male,SAAY1407,fr,238,90,1,0,1,1.0,237.0,0.0,0.3316525,1.0,0.08939009488744021
120,1200,1920,49,.75,1.5,0.75,False,30,male,SAAY1407,fr,239,90,2,0,1,1.0,238.0,0.0,0.2986283,1.0,0.10682017746080334
120,1200,1920,49,.75,1.5,0.75,False,30,male,SAAY1407,fr,240,90,1,0,1,1.0,239.0,0.0,0.2740675,1.0,0.08258581217385243
120,1200,1920,49,.75,1.5,0.75,False,30,male,SAAY1407,fr,241,0,1,1,2,1.0,240.0,0.0,0.335977,0.0,0.010335384727275678
120,1200,1920,49,.75,1.5,0.75,False,30,male,SAAY1407,fr,242,0,2,1,2,1.0,241.0,1.0,0.3267624,1.0,0.018715709851209905
120,1200,1920,49,.75,1.5,0.75,False,30,male,SAAY1407,fr,243,0,2,1,2,1.0,242.0,1.0,0.4991077,1.0,0.0183489118882868
120,1200,1920,49,.75,1.5,0.75,False,30,male,SAAY1407,fr,244,0,1,0,2,1.0,243.0,0.0,0.5383235,1.0,0.012849390314387626
120,1200,1920,49,.75,1.5,0.75,False,30,male,SAAY1407,fr,245,0,2,0,2,1.0,244.0,0.0,0.5612038,1.0,0.017636741035637882
120,1200,1920,49,.75,1.5,0.75,False,30,male,SAAY1407,fr,246,0,1,0,2,1.0,245.0,0.0,0.4326248,1.0,0.012597562826699979
120,1200,1920,49,.75,1.5,0.75,False,30,male,SAAY1407,fr,247,0,2,1,2,1.0,246.0,0.0,0.3831799,0.0,0.0166199752417109
120,1200,1920,49,.75,1.5,0.75,False,30,male,SAAY1407,fr,248,0,2,0,2,1.0,247.0,1.0,0.5227588,0.0,0.019089840169665778
120,1200,1920,49,.75,1.5,0.75,False,30,male,SAAY1407,fr,249,0,2,0,2,1.0,248.0,0.0,0.3660797,1.0,0.020662660803773863
120,1200,1920,49,.75,1.5,0.75,False,30,male,SAAY1407,fr,250,0,1,0,2,1.0,249.0,0.0,0.3337369,1.0,0.012350670754779419
120,1200,1920,49,.75,1.5,0.75,False,30,male,SAAY1407,fr,251,0,2,0,2,1.0,250.0,0.0,0.388578,1.0,0.020257705717824762
120,1200,1920,49,.75,1.5,0.75,False,30,male,SAAY1407,fr,252,0,2,1,2,1.0,251.0,1.0,0.3203898,1.0,0.020257705717824762
120,1200,1920,49,.75,1.5,0.75,False,30,male,SAAY1407,fr,253,0,1,1,2,1.0,252.0,0.0,0.4230717,0.0,0.0121086173723749
120,1200,1920,49,.75,1.5,0.75,False,30,male,SAAY1407,fr,254,0,1,0,2,1.0,253.0,0.0,0.7876445,1.0,0.013106251877668104
120,1200,1920,49,.75,1.5,0.75,False,30,male,SAAY1407,fr,255,0,1,0,2,1.0,254.0,0.0,0.4396299,1.0,0.013106251877668104
120,1200,1920,49,.75,1.5,0.75,False,30,male,SAAY1407,fr,256,0,2,0,2,1.0,255.0,0.0,0.4226156,1.0,0.019860687103523404
120,1200,1920,49,.75,1.5,0.75,False,30,male,SAAY1407,fr,257,0,2,1,2,1.0,256.0,1.0,0.36211,1.0,0.019860687103523404
120,1200,1920,49,.75,1.5,0.75,False,30,male,SAAY1407,fr,258,0,2,0,2,1.0,257.0,0.0,0.3099683,1.0,0.019471449418725976
120,1200,1920,49,.75,1.5,0.75,False,30,male,SAAY1407,fr,259,0,2,1,2,1.0,258.0,1.0,0.3521621,1.0,0.019471449418725976
120,1200,1920,49,.75,1.5,0.75,False,30,male,SAAY1407,fr,260,0,1,0,2,1.0,259.0,0.0,0.3117011,1.0,0.012849390314387626
120,1200,1920,49,.75,1.5,0.75,False,30,male,SAAY1407,fr,261,0,1,1,2,1.0,260.0,1.0,0.3305476,1.0,0.012849390314387626
120,1200,1920,49,.75,1.5,0.75,False,30,male,SAAY1407,fr,262,0,1,1,2,1.0,261.0,1.0,0.31034,1.0,0.012597562826699979
120,1200,1920,49,.75,1.5,0.75,False,30,male,SAAY1407,fr,263,0,2,1,2,1.0,262.0,1.0,0.3252564,1.0,0.019089840169665778
120,1200,1920,49,.75,1.5,0.75,False,30,male,SAAY1407,fr,264,0,1,0,2,1.0,263.0,0.0,0.8685416,1.0,0.011186921786571522
120,1200,1920,49,.75,1.5,0.75,False,30,male,SAAY1407,fr,265,0,2,0,2,1.0,264.0,0.0,0.5642255,1.0,0.018715709851209905
120,1200,1920,49,.75,1.5,0.75,False,30,male,SAAY1407,fr,266,0,1,1,2,1.0,265.0,0.0,0.4118708,0.0,0.010967676021633076
120,1200,1920,49,.75,1.5,0.75,False,30,male,SAAY1407,fr,267,0,2,1,2,1.0,266.0,1.0,0.355658,1.0,0.0183489118882868
120,1200,1920,49,.75,1.5,0.75,False,30,male,SAAY1407,fr,268,0,1,0,2,1.0,267.0,0.0,0.3785151,1.0,0.012849390314387626
120,1200,1920,49,.75,1.5,0.75,False,30,male,SAAY1407,fr,269,0,1,1,2,1.0,268.0,1.0,0.2846114,1.0,0.012849390314387626
120,1200,1920,49,.75,1.5,0.75,False,30,male,SAAY1407,fr,270,0,2,0,2,1.0,269.0,0.0,0.371974,1.0,0.01798930257846178
120,1200,1920,49,.75,1.5,0.75,False,30,male,SAAY1407,fr,271,0,1,0,2,1.0,270.0,0.0,0.3945375,1.0,0.012597562826699979
120,1200,1920,49,.75,1.5,0.75,False,30,male,SAAY1407,fr,272,0,2,1,2,1.0,271.0,1.0,0.3138589,1.0,0.016952211458201936
120,1200,1920,49,.75,1.5,0.75,False,30,male,SAAY1407,fr,273,0,2,1,2,1.0,272.0,1.0,0.40479,1.0,0.015974909092232634
120,1200,1920,49,.75,1.5,0.75,False,30,male,SAAY1407,fr,274,0,2,0,2,1.0,273.0,0.0,0.3515116,1.0,0.01535487970310756
120,1200,1920,49,.75,1.5,0.75,False,30,male,SAAY1407,fr,275,0,2,0,2,1.0,274.0,0.0,0.3544936,1.0,0.014758915330012263
120,1200,1920,49,.75,1.5,0.75,False,30,male,SAAY1407,fr,276,0,1,0,2,1.0,275.0,0.0,0.4259642,1.0,0.012597562826699979
120,1200,1920,49,.75,1.5,0.75,False,30,male,SAAY1407,fr,277,0,2,0,2,1.0,276.0,0.0,0.4329652,1.0,0.013908057440071123
120,1200,1920,49,.75,1.5,0.75,False,30,male,SAAY1407,fr,278,0,2,1,2,1.0,277.0,1.0,0.2847797,1.0,0.013368248148594363
120,1200,1920,49,.75,1.5,0.75,False,30,male,SAAY1407,fr,279,0,2,1,2,1.0,278.0,0.0,0.3680573,0.0,0.012597562826699979
120,1200,1920,49,.75,1.5,0.75,False,30,male,SAAY1407,fr,280,0,1,1,2,1.0,279.0,1.0,0.3669368,1.0,0.011186921786571522
120,1200,1920,49,.75,1.5,0.75,False,30,male,SAAY1407,fr,281,0,2,0,2,1.0,280.0,1.0,0.4862731,0.0,0.01535487970310756
120,1200,1920,49,.75,1.5,0.75,False,30,male,SAAY1407,fr,282,0,2,0,2,1.0,281.0,0.0,0.3778888,1.0,0.01729108913486021
120,1200,1920,49,.75,1.5,0.75,False,30,male,SAAY1407,fr,283,0,2,1,2,1.0,282.0,1.0,0.3654945,1.0,0.016952211458201936
120,1200,1920,49,.75,1.5,0.75,False,30,male,SAAY1407,fr,284,0,1,0,2,1.0,283.0,0.0,0.3962337,1.0,0.010967676021633076
120,1200,1920,49,.75,1.5,0.75,False,30,male,SAAY1407,fr,285,0,2,0,2,1.0,284.0,0.0,0.4917751,1.0,0.0166199752417109
120,1200,1920,49,.75,1.5,0.75,False,30,male,SAAY1407,fr,286,0,1,1,2,1.0,285.0,1.0,0.4429247,1.0,0.010752727122835341
120,1200,1920,49,.75,1.5,0.75,False,30,male,SAAY1407,fr,287,0,2,1,2,1.0,286.0,1.0,0.3296866,1.0,0.01629425032339594
120,1200,1920,49,.75,1.5,0.75,False,30,male,SAAY1407,fr,288,0,1,0,2,1.0,287.0,0.0,0.3534905,1.0,0.010541990878478093
120,1200,1920,49,.75,1.5,0.75,False,30,male,SAAY1407,fr,289,0,2,0,2,1.0,288.0,0.0,0.4565156,1.0,0.015974909092232634
120,1200,1920,49,.75,1.5,0.75,False,30,male,SAAY1407,fr,290,0,2,0,2,1.0,289.0,0.0,0.4677501,1.0,0.01535487970310756
120,1200,1920,49,.75,1.5,0.75,False,30,male,SAAY1407,fr,291,0,1,0,2,1.0,290.0,0.0,0.3628149,1.0,0.010132827726011519
120,1200,1920,49,.75,1.5,0.75,False,30,male,SAAY1407,fr,292,0,2,1,2,1.0,291.0,1.0,0.4016059,1.0,0.014758915330012263
120,1200,1920,49,.75,1.5,0.75,False,30,male,SAAY1407,fr,293,0,1,1,2,1.0,292.0,0.0,0.3208761,0.0,0.009934240517826544
120,1200,1920,49,.75,1.5,0.75,False,30,male,SAAY1407,fr,294,0,1,1,2,1.0,293.0,1.0,0.3400773,1.0,0.011186921786571522
120,1200,1920,49,.75,1.5,0.75,False,30,male,SAAY1407,fr,295,0,2,1,2,1.0,294.0,0.0,0.3232724,0.0,0.014186081944646352
120,1200,1920,49,.75,1.5,0.75,False,30,male,SAAY1407,fr,296,0,2,1,2,1.0,295.0,1.0,0.3905829,1.0,0.016952211458201936
120,1200,1920,49,.75,1.5,0.75,False,30,male,SAAY1407,fr,297,0,2,0,2,1.0,296.0,0.0,0.3138115,1.0,0.016952211458201936
120,1200,1920,49,.75,1.5,0.75,False,30,male,SAAY1407,fr,298,0,1,1,2,1.0,297.0,1.0,0.4405041,1.0,0.011186921786571522
120,1200,1920,49,.75,1.5,0.75,False,30,male,SAAY1407,fr,299,0,1,0,2,1.0,298.0,0.0,0.4362429,1.0,0.010967676021633076
120,1200,1920,49,.75,1.5,0.75,False,30,male,SAAY1407,fr,300,0,2,0,2,1.0,299.0,1.0,0.6354169,0.0,0.0166199752417109
120,1200,1920,49,.75,1.5,0.75,False,30,male,SAAY1407,fr,301,0,2,1,2,1.0,300.0,1.0,0.3680613,1.0,0.01798930257846178
120,1200,1920,49,.75,1.5,0.75,False,30,male,SAAY1407,fr,302,0,1,0,2,1.0,301.0,0.0,0.375228,1.0,0.010752727122835341
120,1200,1920,49,.75,1.5,0.75,False,30,male,SAAY1407,fr,303,0,1,1,2,1.0,302.0,1.0,0.3555107,1.0,0.010541990878478093
120,1200,1920,49,.75,1.5,0.75,False,30,male,SAAY1407,fr,304,0,1,0,2,1.0,303.0,0.0,0.4063966,1.0,0.009739545301129157
120,1200,1920,49,.75,1.5,0.75,False,30,male,SAAY1407,fr,305,0,1,1,2,1.0,304.0,1.0,0.3371861,1.0,0.009361527229880708
120,1200,1920,49,.75,1.5,0.75,False,30,male,SAAY1407,fr,306,0,2,0,2,1.0,305.0,0.0,0.3443853,1.0,0.017636741035637882
120,1200,1920,49,.75,1.5,0.75,False,30,male,SAAY1407,fr,307,0,2,1,2,1.0,306.0,1.0,0.300157,1.0,0.017636741035637882
120,1200,1920,49,.75,1.5,0.75,False,30,male,SAAY1407,fr,308,0,2,1,2,1.0,307.0,1.0,0.3271757,1.0,0.017636741035637882
120,1200,1920,49,.75,1.5,0.75,False,30,male,SAAY1407,fr,309,0,1,1,2,1.0,308.0,1.0,0.3734526,1.0,0.00899818106145444
120,1200,1920,49,.75,1.5,0.75,False,30,male,SAAY1407,fr,310,0,1,1,2,1.0,309.0,0.0,0.3695029,0.0,0.00882183111215549
120,1200,1920,49,.75,1.5,0.75,False,30,male,SAAY1407,fr,311,0,1,1,2,1.0,310.0,1.0,0.3739982,1.0,0.010541990878478093
120,1200,1920,49,.75,1.5,0.75,False,30,male,SAAY1407,fr,312,0,1,1,2,1.0,311.0,1.0,0.4330378,1.0,0.010541990878478093
120,1200,1920,49,.75,1.5,0.75,False,30,male,SAAY1407,fr,313,0,2,0,2,1.0,312.0,1.0,0.3605253,0.0,0.014758915330012263
120,1200,1920,49,.75,1.5,0.75,False,30,male,SAAY1407,fr,314,0,1,1,2,1.0,313.0,1.0,0.5027798,1.0,0.009548665799114418
120,1200,1920,49,.75,1.5,0.75,False,30,male,SAAY1407,fr,315,0,1,0,2,1.0,314.0,0.0,0.434294,1.0,0.009178056277132024
120,1200,1920,49,.75,1.5,0.75,False,30,male,SAAY1407,fr,316,0,1,1,2,1.0,315.0,1.0,0.2784663,1.0,0.00899818106145444
120,1200,1920,49,.75,1.5,0.75,False,30,male,SAAY1407,fr,317,0,1,0,2,1.0,316.0,1.0,0.4161385,0.0,0.00864893733965554
120,1200,1920,49,.75,1.5,0.75,False,30,male,SAAY1407,fr,318,0,1,1,2,1.0,317.0,1.0,0.3302284,1.0,0.010541990878478093
120,1200,1920,49,.75,1.5,0.75,False,30,male,SAAY1407,fr,319,0,1,0,2,1.0,318.0,0.0,0.3651004,1.0,0.010541990878478093
120,1200,1920,49,.75,1.5,0.75,False,30,male,SAAY1407,fr,320,0,1,0,2,1.0,319.0,1.0,0.2805775,0.0,0.010335384727275678
120,1200,1920,49,.75,1.5,0.75,False,30,male,SAAY1407,fr,321,90,1,0,1,1.0,320.0,0.0,0.4798649,1.0,0.07938043364074708
120,1200,1920,49,.75,1.5,0.75,False,30,male,SAAY1407,fr,322,90,2,1,1,1.0,321.0,1.0,0.3823571,1.0,0.10066194775589994
120,1200,1920,49,.75,1.5,0.75,False,30,male,SAAY1407,fr,323,90,1,1,1,1.0,322.0,1.0,0.2780544,1.0,0.0778247041713946
120,1200,1920,49,.75,1.5,0.75,False,30,male,SAAY1407,fr,324,90,1,1,1,1.0,323.0,1.0,0.265386,1.0,0.07629946451005658
120,1200,1920,49,.75,1.5,0.75,False,30,male,SAAY1407,fr,325,90,2,1,1,1.0,324.0,1.0,0.280563,1.0,0.09485874267274703
120,1200,1920,49,.75,1.5,0.75,False,30,male,SAAY1407,fr,326,90,2,0,1,1.0,325.0,0.0,0.5076627,1.0,0.08592062375574905
120,1200,1920,49,.75,1.5,0.75,False,30,male,SAAY1407,fr,327,90,1,1,1,1.0,326.0,1.0,0.2505497,1.0,0.07480411710528782
120,1200,1920,49,.75,1.5,0.75,False,30,male,SAAY1407,fr,328,90,1,1,1,1.0,327.0,1.0,0.2695932,1.0,0.07190076718541984
120,1200,1920,49,.75,1.5,0.75,False,30,male,SAAY1407,fr,329,90,2,0,1,1.0,328.0,0.0,0.3251876,1.0,0.07480411710528782
120,1200,1920,49,.75,1.5,0.75,False,30,male,SAAY1407,fr,330,90,1,0,1,1.0,329.0,1.0,0.3086807,0.0,0.06775565667529103
120,1200,1920,49,.75,1.5,0.75,False,30,male,SAAY1407,fr,331,90,1,0,1,1.0,330.0,0.0,0.3208738,1.0,0.07938043364074708
120,1200,1920,49,.75,1.5,0.75,False,30,male,SAAY1407,fr,332,90,1,0,1,1.0,331.0,1.0,0.2532008,0.0,0.0778247041713946
120,1200,1920,49,.75,1.5,0.75,False,30,male,SAAY1407,fr,333,90,1,1,1,1.0,332.0,0.0,0.2645052,0.0,0.08258581217385243
120,1200,1920,49,.75,1.5,0.75,False,30,male,SAAY1407,fr,334,90,1,0,1,1.0,333.0,0.0,0.5246698,1.0,0.09299966311581748
120,1200,1920,49,.75,1.5,0.75,False,30,male,SAAY1407,fr,335,90,1,1,1,1.0,334.0,1.0,0.2795242,1.0,0.09299966311581748
120,1200,1920,49,.75,1.5,0.75,False,30,male,SAAY1407,fr,336,90,1,1,1,1.0,335.0,1.0,0.2590397,1.0,0.09117701854317731
120,1200,1920,49,.75,1.5,0.75,False,30,male,SAAY1407,fr,337,90,2,1,1,1.0,336.0,1.0,0.2822957,1.0,0.045606399576455986
120,1200,1920,49,.75,1.5,0.75,False,30,male,SAAY1407,fr,338,90,2,1,1,1.0,337.0,1.0,0.2619042,1.0,0.037416736247546954
120,1200,1920,49,.75,1.5,0.75,False,30,male,SAAY1407,fr,339,90,1,1,1,1.0,338.0,1.0,0.2681413,1.0,0.08763819207579797
120,1200,1920,49,.75,1.5,0.75,False,30,male,SAAY1407,fr,340,90,2,1,1,1.0,339.0,1.0,0.2037236,1.0,0.024207734900064604
120,1200,1920,49,.75,1.5,0.75,False,30,male,SAAY1407,fr,341,90,2,1,1,1.0,340.0,1.0,0.2391802,1.0,0.014186081944646352
120,1200,1920,49,.75,1.5,0.75,False,30,male,SAAY1407,fr,342,90,2,1,1,1.0,341.0,1.0,0.2349473,1.0,0.008479432008420128
120,1200,1920,49,.75,1.5,0.75,False,30,male,SAAY1407,fr,343,90,1,1,1,1.0,342.0,1.0,0.2660091,1.0,0.08258581217385243
120,1200,1920,49,.75,1.5,0.75,False,30,male,SAAY1407,fr,344,90,2,0,1,1.0,343.0,1.0,0.2404646,0.0,0.005595655935901615
120,1200,1920,49,.75,1.5,0.75,False,30,male,SAAY1407,fr,345,90,1,0,1,1.0,344.0,0.0,0.5199491,1.0,0.08096726241471731
120,1200,1920,49,.75,1.5,0.75,False,30,male,SAAY1407,fr,346,90,1,0,1,1.0,345.0,0.0,0.379277,1.0,0.07938043364074708
120,1200,1920,49,.75,1.5,0.75,False,30,male,SAAY1407,fr,347,90,1,0,1,1.0,346.0,0.0,0.3514978,1.0,0.0778247041713946
120,1200,1920,49,.75,1.5,0.75,False,30,male,SAAY1407,fr,348,90,2,1,1,1.0,347.0,0.0,0.3272801,0.0,0.015974909092232634
120,1200,1920,49,.75,1.5,0.75,False,30,male,SAAY1407,fr,349,90,2,1,1,1.0,348.0,0.0,0.3934328,0.0,0.04383629197169139
120,1200,1920,49,.75,1.5,0.75,False,30,male,SAAY1407,fr,350,90,1,0,1,1.0,349.0,1.0,0.5287945,0.0,0.07629946451005658
120,1200,1920,49,.75,1.5,0.75,False,30,male,SAAY1407,fr,351,90,1,0,1,1.0,350.0,0.0,0.9239494,1.0,0.08423671702620264
120,1200,1920,49,.75,1.5,0.75,False,30,male,SAAY1407,fr,352,90,2,0,1,1.0,351.0,0.0,0.4353197,1.0,0.08423671702620264
120,1200,1920,49,.75,1.5,0.75,False,30,male,SAAY1407,fr,353,90,1,1,1,1.0,352.0,1.0,0.4576055,1.0,0.08258581217385243
120,1200,1920,49,.75,1.5,0.75,False,30,male,SAAY1407,fr,354,90,1,0,1,1.0,353.0,1.0,0.741416,0.0,0.08096726241471731
120,1200,1920,49,.75,1.5,0.75,False,30,male,SAAY1407,fr,355,90,2,0,1,1.0,354.0,1.0,0.5332971,0.0,0.07938043364074708
120,1200,1920,49,.75,1.5,0.75,False,30,male,SAAY1407,fr,356,90,1,0,1,1.0,355.0,0.0,0.4754533,1.0,0.09117701854317731
120,1200,1920,49,.75,1.5,0.75,False,30,male,SAAY1407,fr,357,90,1,1,1,1.0,356.0,1.0,0.3592507,1.0,0.09117701854317731
120,1200,1920,49,.75,1.5,0.75,False,30,male,SAAY1407,fr,358,90,2,1,1,1.0,357.0,1.0,0.3260982,1.0,0.10066194775589994
120,1200,1920,49,.75,1.5,0.75,False,30,male,SAAY1407,fr,359,90,1,1,1,1.0,358.0,1.0,0.3091352,1.0,0.09117701854317731
120,1200,1920,49,.75,1.5,0.75,False,30,male,SAAY1407,fr,360,90,2,1,1,1.0,359.0,1.0,0.2599304,1.0,0.09868913466602672
120,1200,1920,49,.75,1.5,0.75,False,30,male,SAAY1407,fr,361,90,2,1,1,1.0,360.0,1.0,0.2475191,1.0,0.09485874267274703
120,1200,1920,49,.75,1.5,0.75,False,30,male,SAAY1407,fr,362,90,2,1,1,1.0,361.0,1.0,0.2738199,1.0,0.09117701854317731
120,1200,1920,49,.75,1.5,0.75,False,30,male,SAAY1407,fr,363,90,1,1,1,1.0,362.0,1.0,0.2967641,1.0,0.0778247041713946
120,1200,1920,49,.75,1.5,0.75,False,30,male,SAAY1407,fr,364,90,2,0,1,1.0,363.0,1.0,0.31945,0.0,0.08096726241471731
120,1200,1920,49,.75,1.5,0.75,False,30,male,SAAY1407,fr,365,90,2,0,1,1.0,364.0,0.0,0.3310255,1.0,0.10066194775589994
120,1200,1920,49,.75,1.5,0.75,False,30,male,SAAY1407,fr,366,90,1,1,1,1.0,365.0,1.0,0.3052178,1.0,0.07629946451005658
120,1200,1920,49,.75,1.5,0.75,False,30,male,SAAY1407,fr,367,90,2,0,1,1.0,366.0,0.0,0.3445454,1.0,0.09868913466602672
120,1200,1920,49,.75,1.5,0.75,False,30,male,SAAY1407,fr,368,90,2,1,1,1.0,367.0,1.0,0.9232818,1.0,0.09485874267274703
120,1200,1920,49,.75,1.5,0.75,False,30,male,SAAY1407,fr,369,90,2,0,1,1.0,368.0,0.0,0.4778237,1.0,0.09299966311581748
120,1200,1920,49,.75,1.5,0.75,False,30,male,SAAY1407,fr,370,90,1,0,1,1.0,369.0,0.0,0.469024,1.0,0.07333807611669522
120,1200,1920,49,.75,1.5,0.75,False,30,male,SAAY1407,fr,371,90,1,0,1,1.0,370.0,0.0,0.3201038,1.0,0.07190076718541984
120,1200,1920,49,.75,1.5,0.75,False,30,male,SAAY1407,fr,372,90,1,0,1,1.0,371.0,1.0,0.274765,0.0,0.07049162720911727
120,1200,1920,49,.75,1.5,0.75,False,30,male,SAAY1407,fr,373,90,1,1,1,1.0,372.0,0.0,0.3097075,0.0,0.07629946451005658
120,1200,1920,49,.75,1.5,0.75,False,30,male,SAAY1407,fr,374,90,2,1,1,1.0,373.0,1.0,0.2850298,1.0,0.08939009488744021
120,1200,1920,49,.75,1.5,0.75,False,30,male,SAAY1407,fr,375,90,1,1,1,1.0,374.0,1.0,0.2921429,1.0,0.09117701854317731
120,1200,1920,49,.75,1.5,0.75,False,30,male,SAAY1407,fr,376,90,1,0,1,1.0,375.0,0.0,0.3825286,1.0,0.09117701854317731
120,1200,1920,49,.75,1.5,0.75,False,30,male,SAAY1407,fr,377,90,1,1,1,1.0,376.0,1.0,0.2976362,1.0,0.08939009488744021
120,1200,1920,49,.75,1.5,0.75,False,30,male,SAAY1407,fr,378,90,2,1,1,1.0,377.0,1.0,0.4165177,1.0,0.0778247041713946
120,1200,1920,49,.75,1.5,0.75,False,30,male,SAAY1407,fr,379,90,2,0,1,1.0,378.0,0.0,0.3244452,1.0,0.07480411710528782
120,1200,1920,49,.75,1.5,0.75,False,30,male,SAAY1407,fr,380,90,1,1,1,1.0,379.0,1.0,0.2918507,1.0,0.08939009488744021
120,1200,1920,49,.75,1.5,0.75,False,30,male,SAAY1407,fr,381,90,2,1,1,1.0,380.0,1.0,0.2738882,1.0,0.07190076718541984
120,1200,1920,49,.75,1.5,0.75,False,30,male,SAAY1407,fr,382,90,1,0,1,1.0,381.0,0.0,0.3372912,1.0,0.08763819207579797
120,1200,1920,49,.75,1.5,0.75,False,30,male,SAAY1407,fr,383,90,2,0,1,1.0,382.0,0.0,0.3523282,1.0,0.07049162720911727
120,1200,1920,49,.75,1.5,0.75,False,30,male,SAAY1407,fr,384,90,2,0,1,1.0,383.0,0.0,0.3393665,1.0,0.06911010412134794
120,1200,1920,49,.75,1.5,0.75,False,30,male,SAAY1407,fr,385,90,2,0,1,1.0,384.0,0.0,0.4299825,1.0,0.06775565667529103
120,1200,1920,49,.75,1.5,0.75,False,30,male,SAAY1407,fr,386,90,2,1,1,1.0,385.0,0.0,0.2969868,0.0,0.0651258765509975
120,1200,1920,49,.75,1.5,0.75,False,30,male,SAAY1407,fr,387,90,2,1,1,1.0,386.0,1.0,0.3009935,1.0,0.07333807611669522
120,1200,1920,49,.75,1.5,0.75,False,30,male,SAAY1407,fr,388,90,2,0,1,1.0,387.0,0.0,0.3274187,1.0,0.07333807611669522
120,1200,1920,49,.75,1.5,0.75,False,30,male,SAAY1407,fr,389,90,2,0,1,1.0,388.0,0.0,0.2904211,1.0,0.07190076718541984
120,1200,1920,49,.75,1.5,0.75,False,30,male,SAAY1407,fr,390,90,1,1,1,1.0,389.0,1.0,0.2731412,1.0,0.07629946451005658
120,1200,1920,49,.75,1.5,0.75,False,30,male,SAAY1407,fr,391,90,1,1,1,1.0,390.0,1.0,0.3320811,1.0,0.07480411710528782
120,1200,1920,49,.75,1.5,0.75,False,30,male,SAAY1407,fr,392,90,2,0,1,1.0,391.0,1.0,0.3954395,0.0,0.07190076718541984
120,1200,1920,49,.75,1.5,0.75,False,30,male,SAAY1407,fr,393,90,2,1,1,1.0,392.0,1.0,0.2867282,1.0,0.07629946451005658
120,1200,1920,49,.75,1.5,0.75,False,30,male,SAAY1407,fr,394,90,2,0,1,1.0,393.0,1.0,0.3855674,0.0,0.07480411710528782
120,1200,1920,49,.75,1.5,0.75,False,30,male,SAAY1407,fr,395,90,2,0,1,1.0,394.0,0.0,0.3813539,1.0,0.08763819207579797
120,1200,1920,49,.75,1.5,0.75,False,30,male,SAAY1407,fr,396,90,2,0,1,1.0,395.0,0.0,0.3926458,1.0,0.08423671702620264
120,1200,1920,49,.75,1.5,0.75,False,30,male,SAAY1407,fr,397,90,1,0,1,1.0,396.0,0.0,0.3440077,1.0,0.07190076718541984
120,1200,1920,49,.75,1.5,0.75,False,30,male,SAAY1407,fr,398,90,1,0,1,1.0,397.0,0.0,0.3146531,1.0,0.07049162720911727
120,1200,1920,49,.75,1.5,0.75,False,30,male,SAAY1407,fr,399,90,2,0,1,1.0,398.0,0.0,0.2825903,1.0,0.08096726241471731
120,1200,1920,49,.75,1.5,0.75,False,30,male,SAAY1407,fr,400,90,1,0,1,1.0,399.0,0.0,0.3846275,1.0,0.06911010412134794
120,1200,1920,49,.75,1.5,0.75,False,30,male,SAAY1407,fr,401,361,2,0,3,1.0,400.0,0.0,0.7083783,1.0,0.0022071890938715104
120,1200,1920,49,.75,1.5,0.75,False,30,male,SAAY1407,fr,402,361,1,0,3,1.0,401.0,1.0,0.9551551,0.0,0.004500856109433489
120,1200,1920,49,.75,1.5,0.75,False,30,male,SAAY1407,fr,403,361,2,0,3,1.0,402.0,0.0,0.4336314,1.0,0.0021639317197267717
120,1200,1920,49,.75,1.5,0.75,False,30,male,SAAY1407,fr,404,361,1,0,3,1.0,403.0,0.0,0.6408447,1.0,0.004682600487639664
120,1200,1920,49,.75,1.5,0.75,False,30,male,SAAY1407,fr,405,361,2,1,3,1.0,404.0,1.0,0.3518166,1.0,0.002121522120891857
120,1200,1920,49,.75,1.5,0.75,False,30,male,SAAY1407,fr,406,361,1,0,3,1.0,405.0,0.0,0.4152798,1.0,0.00459082901149991
120,1200,1920,49,.75,1.5,0.75,False,30,male,SAAY1407,fr,407,361,2,0,3,1.0,406.0,0.0,0.5256507,1.0,0.002079943682327365
120,1200,1920,49,.75,1.5,0.75,False,30,male,SAAY1407,fr,408,361,1,0,3,1.0,407.0,1.0,0.3251197,0.0,0.00459082901149991
120,1200,1920,49,.75,1.5,0.75,False,30,male,SAAY1407,fr,409,361,1,0,3,1.0,408.0,1.0,0.462813,0.0,0.004871683696105335
120,1200,1920,49,.75,1.5,0.75,False,30,male,SAAY1407,fr,410,361,1,1,3,1.0,409.0,1.0,0.3382019,1.0,0.005068402076484144
120,1200,1920,49,.75,1.5,0.75,False,30,male,SAAY1407,fr,411,361,1,0,3,1.0,410.0,0.0,0.3738611,1.0,0.005068402076484144
120,1200,1920,49,.75,1.5,0.75,False,30,male,SAAY1407,fr,412,361,2,0,3,1.0,411.0,1.0,0.2687762,0.0,0.0020391801146220695
120,1200,1920,49,.75,1.5,0.75,False,30,male,SAAY1407,fr,413,361,2,1,3,1.0,412.0,1.0,0.3279083,1.0,0.0022071890938715104
120,1200,1920,49,.75,1.5,0.75,False,30,male,SAAY1407,fr,414,361,2,0,3,1.0,413.0,1.0,0.3714343,0.0,0.0022071890938715104
120,1200,1920,49,.75,1.5,0.75,False,30,male,SAAY1407,fr,415,361,2,1,3,1.0,414.0,1.0,0.3356233,1.0,0.002342219040591588
120,1200,1920,49,.75,1.5,0.75,False,30,male,SAAY1407,fr,416,361,1,0,3,1.0,415.0,1.0,0.2948601,0.0,0.004969069506589162
120,1200,1920,49,.75,1.5,0.75,False,30,male,SAAY1407,fr,417,361,1,1,3,1.0,416.0,1.0,0.2902026,1.0,0.0052730639366930995
120,1200,1920,49,.75,1.5,0.75,False,30,male,SAAY1407,fr,418,361,1,1,3,1.0,417.0,1.0,0.2771139,1.0,0.0052730639366930995
120,1200,1920,49,.75,1.5,0.75,False,30,male,SAAY1407,fr,419,361,1,0,3,1.0,418.0,1.0,0.4087723,0.0,0.005169720321851946
120,1200,1920,49,.75,1.5,0.75,False,30,male,SAAY1407,fr,420,361,2,0,3,1.0,419.0,0.0,0.4241535,1.0,0.002342219040591588
120,1200,1920,49,.75,1.5,0.75,False,30,male,SAAY1407,fr,421,361,1,1,3,1.0,420.0,1.0,0.3343695,1.0,0.005595655935901615
120,1200,1920,49,.75,1.5,0.75,False,30,male,SAAY1407,fr,422,361,1,1,3,1.0,421.0,0.0,0.3137701,0.0,0.005485990034109779
120,1200,1920,49,.75,1.5,0.75,False,30,male,SAAY1407,fr,423,361,2,1,3,1.0,422.0,1.0,0.3133342,1.0,0.0022963152955753057
120,1200,1920,49,.75,1.5,0.75,False,30,male,SAAY1407,fr,424,361,2,0,3,1.0,423.0,1.0,0.2525148,0.0,0.002251311190503024
120,1200,1920,49,.75,1.5,0.75,False,30,male,SAAY1407,fr,425,361,1,1,3,1.0,424.0,1.0,0.3238036,1.0,0.005937983253930972
120,1200,1920,49,.75,1.5,0.75,False,30,male,SAAY1407,fr,426,361,1,0,3,1.0,425.0,0.0,0.3588343,1.0,0.005821608284521384
120,1200,1920,49,.75,1.5,0.75,False,30,male,SAAY1407,fr,427,361,1,0,3,1.0,426.0,0.0,0.4904384,1.0,0.005707514078281028
120,1200,1920,49,.75,1.5,0.75,False,30,male,SAAY1407,fr,428,361,1,1,3,1.0,427.0,1.0,0.4627534,1.0,0.005707514078281028
120,1200,1920,49,.75,1.5,0.75,False,30,male,SAAY1407,fr,429,361,1,1,3,1.0,428.0,1.0,0.3223957,1.0,0.005595655935901615
120,1200,1920,49,.75,1.5,0.75,False,30,male,SAAY1407,fr,430,361,2,1,3,1.0,429.0,1.0,0.3296341,1.0,0.002436797745798976
120,1200,1920,49,.75,1.5,0.75,False,30,male,SAAY1407,fr,431,361,2,1,3,1.0,430.0,1.0,0.3646871,1.0,0.0023890404095119507
120,1200,1920,49,.75,1.5,0.75,False,30,male,SAAY1407,fr,432,361,1,1,3,1.0,431.0,1.0,0.3881901,1.0,0.005485990034109779
120,1200,1920,49,.75,1.5,0.75,False,30,male,SAAY1407,fr,433,361,2,0,3,1.0,432.0,1.0,0.3870922,0.0,0.0023890404095119507
120,1200,1920,49,.75,1.5,0.75,False,30,male,SAAY1407,fr,434,361,1,1,3,1.0,433.0,1.0,0.4263742,1.0,0.005485990034109779
120,1200,1920,49,.75,1.5,0.75,False,30,male,SAAY1407,fr,435,361,2,1,3,1.0,434.0,1.0,0.4170181,1.0,0.0025858745379489833
120,1200,1920,49,.75,1.5,0.75,False,30,male,SAAY1407,fr,436,361,2,0,3,1.0,435.0,0.0,0.5648973,1.0,0.002535195535098707
120,1200,1920,49,.75,1.5,0.75,False,30,male,SAAY1407,fr,437,361,1,1,3,1.0,436.0,1.0,0.4594018,1.0,0.005378473408498181
120,1200,1920,49,.75,1.5,0.75,False,30,male,SAAY1407,fr,438,361,2,0,3,1.0,437.0,1.0,0.3951753,0.0,0.002485509759604288
120,1200,1920,49,.75,1.5,0.75,False,30,male,SAAY1407,fr,439,361,2,0,3,1.0,438.0,1.0,0.3426237,0.0,0.002744071450960909
120,1200,1920,49,.75,1.5,0.75,False,30,male,SAAY1407,fr,440,361,2,1,3,1.0,439.0,1.0,0.369316,1.0,0.00315186302332867
120,1200,1920,49,.75,1.5,0.75,False,30,male,SAAY1407,fr,441,361,2,1,3,1.0,440.0,1.0,0.3404458,1.0,0.0030295307024573994
120,1200,1920,49,.75,1.5,0.75,False,30,male,SAAY1407,fr,442,361,1,0,3,1.0,441.0,0.0,0.6434783,1.0,0.0052730639366930995
120,1200,1920,49,.75,1.5,0.75,False,30,male,SAAY1407,fr,443,361,1,0,3,1.0,442.0,0.0,0.6135503,1.0,0.0052730639366930995
120,1200,1920,49,.75,1.5,0.75,False,30,male,SAAY1407,fr,444,361,1,0,3,1.0,443.0,1.0,0.4567051,0.0,0.005169720321851946
120,1200,1920,49,.75,1.5,0.75,False,30,male,SAAY1407,fr,445,361,2,0,3,1.0,444.0,0.0,0.5114762,1.0,0.002911946429524439
120,1200,1920,49,.75,1.5,0.75,False,30,male,SAAY1407,fr,446,361,2,1,3,1.0,445.0,0.0,0.3644593,0.0,0.002854876939401858
120,1200,1920,49,.75,1.5,0.75,False,30,male,SAAY1407,fr,447,361,1,0,3,1.0,446.0,0.0,0.6193054,1.0,0.005595655935901615
120,1200,1920,49,.75,1.5,0.75,False,30,male,SAAY1407,fr,448,361,2,0,3,1.0,447.0,1.0,0.5389344,0.0,0.0033446856035465457
120,1200,1920,49,.75,1.5,0.75,False,30,male,SAAY1407,fr,449,361,2,1,3,1.0,448.0,1.0,0.4130234,1.0,0.004076760385613912
120,1200,1920,49,.75,1.5,0.75,False,30,male,SAAY1407,fr,450,361,1,0,3,1.0,449.0,0.0,0.3806023,1.0,0.005485990034109779
120,1200,1920,49,.75,1.5,0.75,False,30,male,SAAY1407,fr,451,361,2,1,3,1.0,450.0,1.0,0.3237231,1.0,0.003841733375705851
120,1200,1920,49,.75,1.5,0.75,False,30,male,SAAY1407,fr,452,361,1,1,3,1.0,451.0,1.0,0.3950591,1.0,0.005485990034109779
120,1200,1920,49,.75,1.5,0.75,False,30,male,SAAY1407,fr,453,361,1,1,3,1.0,452.0,1.0,0.4477497,1.0,0.005378473408498181
120,1200,1920,49,.75,1.5,0.75,False,30,male,SAAY1407,fr,454,361,2,0,3,1.0,453.0,1.0,0.3183809,0.0,0.0036926253222973665
120,1200,1920,49,.75,1.5,0.75,False,30,male,SAAY1407,fr,455,361,2,0,3,1.0,454.0,0.0,0.5999571,1.0,0.004682600487639664
120,1200,1920,49,.75,1.5,0.75,False,30,male,SAAY1407,fr,456,361,1,0,3,1.0,455.0,1.0,0.5268768,0.0,0.0052730639366930995
120,1200,1920,49,.75,1.5,0.75,False,30,male,SAAY1407,fr,457,361,2,1,3,1.0,456.0,0.0,1.1740966,0.0,0.004412646532266771
120,1200,1920,49,.75,1.5,0.75,False,30,male,SAAY1407,fr,458,361,2,1,3,1.0,457.0,1.0,0.505041,1.0,0.005821608284521384
120,1200,1920,49,.75,1.5,0.75,False,30,male,SAAY1407,fr,459,361,1,1,3,1.0,458.0,1.0,0.4955713,1.0,0.005707514078281028
120,1200,1920,49,.75,1.5,0.75,False,30,male,SAAY1407,fr,460,361,1,1,3,1.0,459.0,1.0,0.4183482,1.0,0.005595655935901615
120,1200,1920,49,.75,1.5,0.75,False,30,male,SAAY1407,fr,461,361,2,1,3,1.0,460.0,1.0,0.4486018,1.0,0.005378473408498181
120,1200,1920,49,.75,1.5,0.75,False,30,male,SAAY1407,fr,462,361,2,1,3,1.0,461.0,1.0,0.579923,1.0,0.004871683696105335
120,1200,1920,49,.75,1.5,0.75,False,30,male,SAAY1407,fr,463,361,1,0,3,1.0,462.0,1.0,0.3535615,0.0,0.005595655935901615
120,1200,1920,49,.75,1.5,0.75,False,30,male,SAAY1407,fr,464,361,2,0,3,1.0,463.0,0.0,0.7920249,1.0,0.004241379796535765
120,1200,1920,49,.75,1.5,0.75,False,30,male,SAAY1407,fr,465,361,2,1,3,1.0,464.0,1.0,0.3538763,1.0,0.004076760385613912
120,1200,1920,49,.75,1.5,0.75,False,30,male,SAAY1407,fr,466,361,2,0,3,1.0,465.0,1.0,0.3494787,0.0,0.003996862405967041
120,1200,1920,49,.75,1.5,0.75,False,30,male,SAAY1407,fr,467,361,2,1,3,1.0,466.0,1.0,0.4415578,1.0,0.005378473408498181
120,1200,1920,49,.75,1.5,0.75,False,30,male,SAAY1407,fr,468,361,1,1,3,1.0,467.0,1.0,0.3445815,1.0,0.005937983253930972
120,1200,1920,49,.75,1.5,0.75,False,30,male,SAAY1407,fr,469,361,1,1,3,1.0,468.0,1.0,0.5639948,1.0,0.005821608284521384
120,1200,1920,49,.75,1.5,0.75,False,30,male,SAAY1407,fr,470,361,1,0,3,1.0,469.0,0.0,0.5748969,1.0,0.005821608284521384
120,1200,1920,49,.75,1.5,0.75,False,30,male,SAAY1407,fr,471,361,2,1,3,1.0,470.0,1.0,0.5979641,1.0,0.005169720321851946
120,1200,1920,49,.75,1.5,0.75,False,30,male,SAAY1407,fr,472,361,1,1,3,1.0,471.0,1.0,0.4368102,1.0,0.005707514078281028
120,1200,1920,49,.75,1.5,0.75,False,30,male,SAAY1407,fr,473,361,1,0,3,1.0,472.0,1.0,0.6962119,0.0,0.005707514078281028
120,1200,1920,49,.75,1.5,0.75,False,30,male,SAAY1407,fr,474,361,2,0,3,1.0,473.0,0.0,0.494516,1.0,0.003841733375705851
120,1200,1920,49,.75,1.5,0.75,False,30,male,SAAY1407,fr,475,361,1,1,3,1.0,474.0,1.0,0.3578887,1.0,0.006056684579365083
120,1200,1920,49,.75,1.5,0.75,False,30,male,SAAY1407,fr,476,361,2,0,3,1.0,475.0,1.0,0.2762542,0.0,0.003841733375705851
120,1200,1920,49,.75,1.5,0.75,False,30,male,SAAY1407,fr,477,361,2,0,3,1.0,476.0,1.0,0.3198252,0.0,0.005485990034109779
120,1200,1920,49,.75,1.5,0.75,False,30,male,SAAY1407,fr,478,361,1,1,3,1.0,477.0,0.0,0.4785088,0.0,0.005937983253930972
120,1200,1920,49,.75,1.5,0.75,False,30,male,SAAY1407,fr,479,361,2,1,3,1.0,478.0,1.0,0.3974663,1.0,0.006956757690467928
120,1200,1920,49,.75,1.5,0.75,False,30,male,SAAY1407,fr,480,361,1,0,3,1.0,479.0,0.0,0.5089806,1.0,0.006301253244993052
120,1200,1920,49,.75,1.5,0.75,False,30,male,SAAY1407,fr,481,361,2,0,3,1.0,480.0,1.0,0.5694262,0.0,0.006427216401184427
120,1200,1920,49,.75,1.5,0.75,False,30,male,SAAY1407,fr,482,361,1,0,3,1.0,481.0,0.0,0.3444328,1.0,0.006301253244993052
120,1200,1920,49,.75,1.5,0.75,False,30,male,SAAY1407,fr,483,361,2,0,3,1.0,482.0,0.0,0.3520631,1.0,0.00864893733965554
120,1200,1920,49,.75,1.5,0.75,False,30,male,SAAY1407,fr,484,361,1,0,3,1.0,483.0,0.0,0.4470469,1.0,0.006177758765088165
120,1200,1920,49,.75,1.5,0.75,False,30,male,SAAY1407,fr,485,361,2,1,3,1.0,484.0,0.0,0.53402,0.0,0.007833986305419286
120,1200,1920,49,.75,1.5,0.75,False,30,male,SAAY1407,fr,486,361,1,0,3,1.0,485.0,0.0,0.3257165,1.0,0.006177758765088165
120,1200,1920,49,.75,1.5,0.75,False,30,male,SAAY1407,fr,487,361,2,0,3,1.0,486.0,0.0,0.7010759,1.0,0.011410550312757525
120,1200,1920,49,.75,1.5,0.75,False,30,male,SAAY1407,fr,488,361,1,0,3,1.0,487.0,1.0,0.260035,0.0,0.006177758765088165
120,1200,1920,49,.75,1.5,0.75,False,30,male,SAAY1407,fr,489,361,1,0,3,1.0,488.0,0.0,0.3031801,1.0,0.006427216401184427
120,1200,1920,49,.75,1.5,0.75,False,30,male,SAAY1407,fr,490,361,1,1,3,1.0,489.0,1.0,0.338933,1.0,0.006427216401184427
120,1200,1920,49,.75,1.5,0.75,False,30,male,SAAY1407,fr,491,361,1,0,3,1.0,490.0,0.0,0.2780836,1.0,0.006427216401184427
120,1200,1920,49,.75,1.5,0.75,False,30,male,SAAY1407,fr,492,361,2,0,3,1.0,491.0,0.0,0.3570805,1.0,0.009548665799114418
120,1200,1920,49,.75,1.5,0.75,False,30,male,SAAY1407,fr,493,361,2,1,3,1.0,492.0,0.0,0.2567342,0.0,0.007833986305419286
120,1200,1920,49,.75,1.5,0.75,False,30,male,SAAY1407,fr,494,361,2,0,3,1.0,493.0,0.0,0.9485504,1.0,0.012849390314387626
120,1200,1920,49,.75,1.5,0.75,False,30,male,SAAY1407,fr,495,361,2,1,3,1.0,494.0,0.0,0.7841212,0.0,0.010752727122835341
120,1200,1920,49,.75,1.5,0.75,False,30,male,SAAY1407,fr,496,361,1,0,3,1.0,495.0,0.0,0.3671354,1.0,0.006301253244993052
120,1200,1920,49,.75,1.5,0.75,False,30,male,SAAY1407,fr,497,361,1,1,3,1.0,496.0,1.0,0.4030228,1.0,0.006301253244993052
120,1200,1920,49,.75,1.5,0.75,False,30,male,SAAY1407,fr,498,361,1,1,3,1.0,497.0,1.0,0.4621443,1.0,0.006177758765088165
120,1200,1920,49,.75,1.5,0.75,False,30,male,SAAY1407,fr,499,361,1,0,3,1.0,498.0,1.0,0.5302451,0.0,0.006177758765088165
120,1200,1920,49,.75,1.5,0.75,False,30,male,SAAY1407,fr,500,361,2,0,3,1.0,499.0,0.0,0.3763191,1.0,0.01629425032339594
120,1200,1920,49,.75,1.5,0.75,False,30,male,SAAY1407,fr,501,361,1,1,3,1.0,500.0,1.0,0.3675343,1.0,0.006555697582933695
120,1200,1920,49,.75,1.5,0.75,False,30,male,SAAY1407,fr,502,361,1,1,3,1.0,501.0,1.0,0.3306723,1.0,0.006555697582933695
120,1200,1920,49,.75,1.5,0.75,False,30,male,SAAY1407,fr,503,361,2,1,3,1.0,502.0,1.0,0.330132,1.0,0.013908057440071123
120,1200,1920,49,.75,1.5,0.75,False,30,male,SAAY1407,fr,504,361,2,0,3,1.0,503.0,0.0,0.4369423,1.0,0.009548665799114418
120,1200,1920,49,.75,1.5,0.75,False,30,male,SAAY1407,fr,505,361,1,1,3,1.0,504.0,1.0,0.3882708,1.0,0.006427216401184427
120,1200,1920,49,.75,1.5,0.75,False,30,male,SAAY1407,fr,506,361,1,0,3,1.0,505.0,0.0,0.424995,1.0,0.006427216401184427
120,1200,1920,49,.75,1.5,0.75,False,30,male,SAAY1407,fr,507,361,1,0,3,1.0,506.0,0.0,0.4522333,1.0,0.006427216401184427
120,1200,1920,49,.75,1.5,0.75,False,30,male,SAAY1407,fr,508,361,1,1,3,1.0,507.0,1.0,0.3182857,1.0,0.006301253244993052
120,1200,1920,49,.75,1.5,0.75,False,30,male,SAAY1407,fr,509,361,1,1,3,1.0,508.0,1.0,0.3542709,1.0,0.006301253244993052
120,1200,1920,49,.75,1.5,0.75,False,30,male,SAAY1407,fr,510,361,2,1,3,1.0,509.0,1.0,0.3454194,1.0,0.009548665799114418
120,1200,1920,49,.75,1.5,0.75,False,30,male,SAAY1407,fr,511,361,2,1,3,1.0,510.0,1.0,0.3642697,1.0,0.009361527229880708
120,1200,1920,49,.75,1.5,0.75,False,30,male,SAAY1407,fr,512,361,1,1,3,1.0,511.0,1.0,0.4191963,1.0,0.006177758765088165
120,1200,1920,49,.75,1.5,0.75,False,30,male,SAAY1407,fr,513,361,2,0,3,1.0,512.0,0.0,0.5782323,1.0,0.0075299281279787005
120,1200,1920,49,.75,1.5,0.75,False,30,male,SAAY1407,fr,514,361,1,1,3,1.0,513.0,1.0,0.3771211,1.0,0.006177758765088165
120,1200,1920,49,.75,1.5,0.75,False,30,male,SAAY1407,fr,515,361,2,1,3,1.0,514.0,1.0,0.3444772,1.0,0.0075299281279787005
120,1200,1920,49,.75,1.5,0.75,False,30,male,SAAY1407,fr,516,361,2,0,3,1.0,515.0,0.0,0.3139374,1.0,0.0075299281279787005
120,1200,1920,49,.75,1.5,0.75,False,30,male,SAAY1407,fr,517,361,1,1,3,1.0,516.0,1.0,0.351968,1.0,0.006177758765088165
120,1200,1920,49,.75,1.5,0.75,False,30,male,SAAY1407,fr,518,361,2,0,3,1.0,517.0,0.0,0.2949183,1.0,0.009361527229880708
120,1200,1920,49,.75,1.5,0.75,False,30,male,SAAY1407,fr,519,361,2,0,3,1.0,518.0,0.0,0.3150852,1.0,0.007237671270027853
120,1200,1920,49,.75,1.5,0.75,False,30,male,SAAY1407,fr,520,361,2,1,3,1.0,519.0,0.0,0.3020562,0.0,0.007382353586576979
120,1200,1920,49,.75,1.5,0.75,False,30,male,SAAY1407,fr,521,361,2,1,3,1.0,520.0,1.0,0.2975748,1.0,0.010335384727275678
120,1200,1920,49,.75,1.5,0.75,False,30,male,SAAY1407,fr,522,361,1,0,3,1.0,521.0,1.0,0.2810743,0.0,0.006056684579365083
120,1200,1920,49,.75,1.5,0.75,False,30,male,SAAY1407,fr,523,361,1,0,3,1.0,522.0,0.0,0.3080774,1.0,0.006427216401184427
120,1200,1920,49,.75,1.5,0.75,False,30,male,SAAY1407,fr,524,361,1,0,3,1.0,523.0,0.0,0.391254,1.0,0.006427216401184427
120,1200,1920,49,.75,1.5,0.75,False,30,male,SAAY1407,fr,525,361,2,0,3,1.0,524.0,0.0,0.3664981,1.0,0.006820416372414831
120,1200,1920,49,.75,1.5,0.75,False,30,male,SAAY1407,fr,526,361,2,1,3,1.0,525.0,1.0,0.2972573,1.0,0.010335384727275678
120,1200,1920,49,.75,1.5,0.75,False,30,male,SAAY1407,fr,527,361,1,0,3,1.0,526.0,0.0,0.2556982,1.0,0.006427216401184427
120,1200,1920,49,.75,1.5,0.75,False,30,male,SAAY1407,fr,528,361,2,0,3,1.0,527.0,0.0,0.4943121,1.0,0.006686747126012868
120,1200,1920,49,.75,1.5,0.75,False,30,male,SAAY1407,fr,529,361,2,1,3,1.0,528.0,1.0,0.4171664,1.0,0.006956757690467928
120,1200,1920,49,.75,1.5,0.75,False,30,male,SAAY1407,fr,530,361,1,0,3,1.0,529.0,0.0,0.4086329,1.0,0.006301253244993052
120,1200,1920,49,.75,1.5,0.75,False,30,male,SAAY1407,fr,531,361,2,1,3,1.0,530.0,1.0,0.3199433,1.0,0.009934240517826544
120,1200,1920,49,.75,1.5,0.75,False,30,male,SAAY1407,fr,532,361,1,1,3,1.0,531.0,1.0,0.454548,1.0,0.004326165721653518
120,1200,1920,49,.75,1.5,0.75,False,30,male,SAAY1407,fr,533,361,1,1,3,1.0,532.0,1.0,0.3138862,1.0,0.004241379796535765
120,1200,1920,49,.75,1.5,0.75,False,30,male,SAAY1407,fr,534,361,2,0,3,1.0,533.0,0.0,0.6011903,1.0,0.006820416372414831
120,1200,1920,49,.75,1.5,0.75,False,30,male,SAAY1407,fr,535,361,2,0,3,1.0,534.0,0.0,0.453009,1.0,0.009548665799114418
120,1200,1920,49,.75,1.5,0.75,False,30,male,SAAY1407,fr,536,361,1,0,3,1.0,535.0,0.0,0.4037611,1.0,0.004158255539870081
120,1200,1920,49,.75,1.5,0.75,False,30,male,SAAY1407,fr,537,361,2,1,3,1.0,536.0,1.0,0.5066655,1.0,0.006820416372414831
120,1200,1920,49,.75,1.5,0.75,False,30,male,SAAY1407,fr,538,361,2,1,3,1.0,537.0,1.0,0.3098514,1.0,0.0070958244953525295
120,1200,1920,49,.75,1.5,0.75,False,30,male,SAAY1407,fr,539,361,1,1,3,1.0,538.0,1.0,0.4366077,1.0,0.004076760385613912
120,1200,1920,49,.75,1.5,0.75,False,30,male,SAAY1407,fr,540,361,1,1,3,1.0,539.0,1.0,0.3352294,1.0,0.003918530298863025
120,1200,1920,49,.75,1.5,0.75,False,30,male,SAAY1407,fr,541,361,2,1,3,1.0,540.0,1.0,0.390322,1.0,0.00864893733965554
120,1200,1920,49,.75,1.5,0.75,False,30,male,SAAY1407,fr,542,361,2,1,3,1.0,541.0,1.0,0.4098838,1.0,0.006956757690467928
120,1200,1920,49,.75,1.5,0.75,False,30,male,SAAY1407,fr,543,361,1,0,3,1.0,542.0,0.0,0.4091251,1.0,0.003841733375705851
120,1200,1920,49,.75,1.5,0.75,False,30,male,SAAY1407,fr,544,361,2,0,3,1.0,543.0,0.0,0.4475016,1.0,0.007382353586576979
120,1200,1920,49,.75,1.5,0.75,False,30,male,SAAY1407,fr,545,361,2,1,3,1.0,544.0,1.0,0.3441446,1.0,0.007382353586576979
120,1200,1920,49,.75,1.5,0.75,False,30,male,SAAY1407,fr,546,361,2,0,3,1.0,545.0,0.0,0.347821,1.0,0.007237671270027853
120,1200,1920,49,.75,1.5,0.75,False,30,male,SAAY1407,fr,547,361,2,1,3,1.0,546.0,1.0,0.3193011,1.0,0.0070958244953525295
120,1200,1920,49,.75,1.5,0.75,False,30,male,SAAY1407,fr,548,361,1,1,3,1.0,547.0,1.0,0.3661491,1.0,0.0037664415493468568
120,1200,1920,49,.75,1.5,0.75,False,30,male,SAAY1407,fr,549,361,1,1,3,1.0,548.0,1.0,0.3938079,1.0,0.0036926253222973665
120,1200,1920,49,.75,1.5,0.75,False,30,male,SAAY1407,fr,550,361,1,0,3,1.0,549.0,0.0,0.4217873,1.0,0.0035493045553601013
120,1200,1920,49,.75,1.5,0.75,False,30,male,SAAY1407,fr,551,361,2,1,3,1.0,550.0,1.0,0.4214826,1.0,0.005821608284521384
120,1200,1920,49,.75,1.5,0.75,False,30,male,SAAY1407,fr,552,361,1,1,3,1.0,551.0,1.0,0.4286401,1.0,0.003479743865915263
120,1200,1920,49,.75,1.5,0.75,False,30,male,SAAY1407,fr,553,361,1,0,3,1.0,552.0,1.0,0.3684378,0.0,0.0033446856035465457
120,1200,1920,49,.75,1.5,0.75,False,30,male,SAAY1407,fr,554,361,2,0,3,1.0,553.0,0.0,0.343509,1.0,0.006820416372414831
120,1200,1920,49,.75,1.5,0.75,False,30,male,SAAY1407,fr,555,361,1,1,3,1.0,554.0,1.0,0.3508724,1.0,0.0035493045553601013
120,1200,1920,49,.75,1.5,0.75,False,30,male,SAAY1407,fr,556,361,2,0,3,1.0,555.0,0.0,0.3892263,1.0,0.006177758765088165
120,1200,1920,49,.75,1.5,0.75,False,30,male,SAAY1407,fr,557,361,2,0,3,1.0,556.0,1.0,0.2880987,0.0,0.006427216401184427
120,1200,1920,49,.75,1.5,0.75,False,30,male,SAAY1407,fr,558,361,1,1,3,1.0,557.0,1.0,0.3431231,1.0,0.0034115464546677645
120,1200,1920,49,.75,1.5,0.75,False,30,male,SAAY1407,fr,559,361,2,1,3,1.0,558.0,1.0,0.3499048,1.0,0.00864893733965554
120,1200,1920,49,.75,1.5,0.75,False,30,male,SAAY1407,fr,560,361,1,0,3,1.0,559.0,0.0,0.5967576,1.0,0.0033446856035465457
120,1200,1920,49,.75,1.5,0.75,False,30,male,SAAY1407,fr,561,90,1,0,1,1.0,560.0,0.0,0.4463325,1.0,0.06775565667529103
120,1200,1920,49,.75,1.5,0.75,False,30,male,SAAY1407,fr,562,90,2,1,1,1.0,561.0,0.0,0.3172997,0.0,0.0778247041713946
120,1200,1920,49,.75,1.5,0.75,False,30,male,SAAY1407,fr,563,90,1,1,1,1.0,562.0,0.0,0.3077649,0.0,0.06642775423169728
120,1200,1920,49,.75,1.5,0.75,False,30,male,SAAY1407,fr,564,90,1,1,1,1.0,563.0,0.0,0.3997383,0.0,0.07049162720911727
120,1200,1920,49,.75,1.5,0.75,False,30,male,SAAY1407,fr,565,90,2,1,1,1.0,564.0,0.0,0.4300005,0.0,0.08939009488744021
120,1200,1920,49,.75,1.5,0.75,False,30,male,SAAY1407,fr,566,90,2,0,1,1.0,565.0,0.0,0.3519451,1.0,0.09868913466602672
120,1200,1920,49,.75,1.5,0.75,False,30,male,SAAY1407,fr,567,90,1,1,1,1.0,566.0,1.0,0.4630886,1.0,0.08592062375574905
120,1200,1920,49,.75,1.5,0.75,False,30,male,SAAY1407,fr,568,90,1,1,1,1.0,567.0,1.0,0.4903315,1.0,0.07333807611669522
120,1200,1920,49,.75,1.5,0.75,False,30,male,SAAY1407,fr,569,90,2,0,1,1.0,568.0,0.0,0.3134955,1.0,0.09675498555568446
120,1200,1920,49,.75,1.5,0.75,False,30,male,SAAY1407,fr,570,90,1,0,1,1.0,569.0,0.0,0.3757116,1.0,0.07190076718541984
120,1200,1920,49,.75,1.5,0.75,False,30,male,SAAY1407,fr,571,90,1,0,1,1.0,570.0,0.0,0.3057216,1.0,0.06911010412134794
120,1200,1920,49,.75,1.5,0.75,False,30,male,SAAY1407,fr,572,90,1,0,1,1.0,571.0,0.0,0.3090189,1.0,0.06775565667529103
120,1200,1920,49,.75,1.5,0.75,False,30,male,SAAY1407,fr,573,90,1,1,1,1.0,572.0,0.0,0.3128723,0.0,0.06642775423169728
120,1200,1920,49,.75,1.5,0.75,False,30,male,SAAY1407,fr,574,90,1,0,1,1.0,573.0,0.0,0.3399354,1.0,0.07049162720911727
120,1200,1920,49,.75,1.5,0.75,False,30,male,SAAY1407,fr,575,90,1,1,1,1.0,574.0,1.0,0.3673651,1.0,0.06911010412134794
120,1200,1920,49,.75,1.5,0.75,False,30,male,SAAY1407,fr,576,90,1,1,1,1.0,575.0,1.0,0.2912741,1.0,0.06642775423169728
120,1200,1920,49,.75,1.5,0.75,False,30,male,SAAY1407,fr,577,90,2,1,1,1.0,576.0,1.0,0.2895536,1.0,0.09675498555568446
120,1200,1920,49,.75,1.5,0.75,False,30,male,SAAY1407,fr,578,90,2,1,1,1.0,577.0,1.0,0.3652299,1.0,0.09485874267274703
120,1200,1920,49,.75,1.5,0.75,False,30,male,SAAY1407,fr,579,90,1,1,1,1.0,578.0,1.0,0.3725821,1.0,0.0651258765509975
120,1200,1920,49,.75,1.5,0.75,False,30,male,SAAY1407,fr,580,90,2,1,1,1.0,579.0,1.0,0.3472132,1.0,0.09299966311581748
120,1200,1920,49,.75,1.5,0.75,False,30,male,SAAY1407,fr,581,90,2,1,1,1.0,580.0,1.0,0.2382182,1.0,0.08763819207579797
120,1200,1920,49,.75,1.5,0.75,False,30,male,SAAY1407,fr,582,90,2,1,1,1.0,581.0,1.0,0.2506135,1.0,0.08592062375574905
120,1200,1920,49,.75,1.5,0.75,False,30,male,SAAY1407,fr,583,90,1,1,1,1.0,582.0,1.0,0.2738955,1.0,0.06384951358948564
120,1200,1920,49,.75,1.5,0.75,False,30,male,SAAY1407,fr,584,90,2,0,1,1.0,583.0,0.0,0.4172115,1.0,0.08423671702620264
120,1200,1920,49,.75,1.5,0.75,False,30,male,SAAY1407,fr,585,90,1,0,1,1.0,584.0,1.0,0.2395349,0.0,0.06259816529949601
120,1200,1920,49,.75,1.5,0.75,False,30,male,SAAY1407,fr,586,90,1,0,1,1.0,585.0,0.0,0.3634895,1.0,0.0651258765509975
120,1200,1920,49,.75,1.5,0.75,False,30,male,SAAY1407,fr,587,90,1,0,1,1.0,586.0,0.0,0.423554,1.0,0.06384951358948564
120,1200,1920,49,.75,1.5,0.75,False,30,male,SAAY1407,fr,588,90,2,1,1,1.0,587.0,1.0,0.3898896,1.0,0.08423671702620264
120,1200,1920,49,.75,1.5,0.75,False,30,male,SAAY1407,fr,589,90,2,1,1,1.0,588.0,1.0,0.4332613,1.0,0.08258581217385243
120,1200,1920,49,.75,1.5,0.75,False,30,male,SAAY1407,fr,590,90,1,0,1,1.0,589.0,0.0,0.3755354,1.0,0.06259816529949601
120,1200,1920,49,.75,1.5,0.75,False,30,male,SAAY1407,fr,591,90,1,0,1,1.0,590.0,1.0,0.4745211,0.0,0.06137134143349693
120,1200,1920,49,.75,1.5,0.75,False,30,male,SAAY1407,fr,592,90,2,0,1,1.0,591.0,1.0,0.4245071,0.0,0.07480411710528782
120,1200,1920,49,.75,1.5,0.75,False,30,male,SAAY1407,fr,593,90,1,1,1,1.0,592.0,1.0,0.502525,1.0,0.06384951358948564
120,1200,1920,49,.75,1.5,0.75,False,30,male,SAAY1407,fr,594,90,1,0,1,1.0,593.0,0.0,0.3061126,1.0,0.06259816529949601
120,1200,1920,49,.75,1.5,0.75,False,30,male,SAAY1407,fr,595,90,2,0,1,1.0,594.0,0.0,0.3446762,1.0,0.08592062375574905
120,1200,1920,49,.75,1.5,0.75,False,30,male,SAAY1407,fr,596,90,1,0,1,1.0,595.0,0.0,0.3681075,1.0,0.06137134143349693
120,1200,1920,49,.75,1.5,0.75,False,30,male,SAAY1407,fr,597,90,1,1,1,1.0,596.0,0.0,0.370873,0.0,0.06016856135202387
120,1200,1920,49,.75,1.5,0.75,False,30,male,SAAY1407,fr,598,90,2,1,1,1.0,597.0,1.0,0.2411685,1.0,0.08423671702620264
120,1200,1920,49,.75,1.5,0.75,False,30,male,SAAY1407,fr,599,90,1,1,1,1.0,598.0,1.0,0.3525138,1.0,0.06259816529949601
120,1200,1920,49,.75,1.5,0.75,False,30,male,SAAY1407,fr,600,90,2,1,1,1.0,599.0,1.0,0.3683159,1.0,0.08423671702620264
120,1200,1920,49,.75,1.5,0.75,False,30,male,SAAY1407,fr,601,90,2,1,1,1.0,600.0,1.0,0.3559452,1.0,0.08423671702620264
120,1200,1920,49,.75,1.5,0.75,False,30,male,SAAY1407,fr,602,90,2,1,1,1.0,601.0,1.0,0.2715236,1.0,0.08258581217385243
120,1200,1920,49,.75,1.5,0.75,False,30,male,SAAY1407,fr,603,90,1,1,1,1.0,602.0,1.0,0.3676306,1.0,0.06137134143349693
120,1200,1920,49,.75,1.5,0.75,False,30,male,SAAY1407,fr,604,90,2,0,1,1.0,603.0,1.0,0.2785068,0.0,0.08258581217385243
120,1200,1920,49,.75,1.5,0.75,False,30,male,SAAY1407,fr,605,90,2,0,1,1.0,604.0,1.0,0.2662489,0.0,0.08763819207579797
120,1200,1920,49,.75,1.5,0.75,False,30,male,SAAY1407,fr,606,90,1,1,1,1.0,605.0,1.0,0.3535255,1.0,0.06016856135202387
120,1200,1920,49,.75,1.5,0.75,False,30,male,SAAY1407,fr,607,90,2,0,1,1.0,606.0,0.0,0.416723,1.0,0.09485874267274703
120,1200,1920,49,.75,1.5,0.75,False,30,male,SAAY1407,fr,608,90,2,1,1,1.0,607.0,1.0,0.2611348,1.0,0.09299966311581748
120,1200,1920,49,.75,1.5,0.75,False,30,male,SAAY1407,fr,609,90,2,0,1,1.0,608.0,0.0,0.3125938,1.0,0.09117701854317731
120,1200,1920,49,.75,1.5,0.75,False,30,male,SAAY1407,fr,610,90,1,0,1,1.0,609.0,0.0,0.4070126,1.0,0.05898935383537662
120,1200,1920,49,.75,1.5,0.75,False,30,male,SAAY1407,fr,611,90,1,0,1,1.0,610.0,1.0,0.3784544,0.0,0.05783325689900704
120,1200,1920,49,.75,1.5,0.75,False,30,male,SAAY1407,fr,612,90,1,0,1,1.0,611.0,1.0,0.4939085,0.0,0.06016856135202387
120,1200,1920,49,.75,1.5,0.75,False,30,male,SAAY1407,fr,613,90,1,1,1,1.0,612.0,1.0,0.4076744,1.0,0.08939009488744021
120,1200,1920,49,.75,1.5,0.75,False,30,male,SAAY1407,fr,614,90,2,1,1,1.0,613.0,1.0,0.3988992,1.0,0.08939009488744021
120,1200,1920,49,.75,1.5,0.75,False,30,male,SAAY1407,fr,615,90,1,1,1,1.0,614.0,1.0,0.2930761,1.0,0.06259816529949601
120,1200,1920,49,.75,1.5,0.75,False,30,male,SAAY1407,fr,616,90,1,0,1,1.0,615.0,0.0,0.4090786,1.0,0.06137134143349693
120,1200,1920,49,.75,1.5,0.75,False,30,male,SAAY1407,fr,617,90,1,1,1,1.0,616.0,1.0,0.3460136,1.0,0.06016856135202387
120,1200,1920,49,.75,1.5,0.75,False,30,male,SAAY1407,fr,618,90,2,1,1,1.0,617.0,0.0,0.3694627,0.0,0.07480411710528782
120,1200,1920,49,.75,1.5,0.75,False,30,male,SAAY1407,fr,619,90,2,0,1,1.0,618.0,1.0,0.389847,0.0,0.08763819207579797
120,1200,1920,49,.75,1.5,0.75,False,30,male,SAAY1407,fr,620,90,1,1,1,1.0,619.0,1.0,0.3654384,1.0,0.05898935383537662
120,1200,1920,49,.75,1.5,0.75,False,30,male,SAAY1407,fr,621,90,2,1,1,1.0,620.0,1.0,0.3157404,1.0,0.09485874267274703
120,1200,1920,49,.75,1.5,0.75,False,30,male,SAAY1407,fr,622,90,1,0,1,1.0,621.0,0.0,0.4259644,1.0,0.05783325689900704
120,1200,1920,49,.75,1.5,0.75,False,30,male,SAAY1407,fr,623,90,2,0,1,1.0,622.0,1.0,0.3687573,0.0,0.09299966311581748
120,1200,1920,49,.75,1.5,0.75,False,30,male,SAAY1407,fr,624,90,2,0,1,1.0,623.0,0.0,0.3964467,1.0,0.09868913466602672
120,1200,1920,49,.75,1.5,0.75,False,30,male,SAAY1407,fr,625,90,2,0,1,1.0,624.0,1.0,0.1990664,0.0,0.09868913466602672
120,1200,1920,49,.75,1.5,0.75,False,30,male,SAAY1407,fr,626,90,2,1,1,1.0,625.0,1.0,0.2901932,1.0,0.10472667292353503
120,1200,1920,49,.75,1.5,0.75,False,30,male,SAAY1407,fr,627,90,2,1,1,1.0,626.0,1.0,0.324988,1.0,0.10267419772502775
120,1200,1920,49,.75,1.5,0.75,False,30,male,SAAY1407,fr,628,90,2,0,1,1.0,627.0,0.0,0.3442816,1.0,0.10267419772502775
120,1200,1920,49,.75,1.5,0.75,False,30,male,SAAY1407,fr,629,90,2,0,1,1.0,628.0,0.0,0.3467381,1.0,0.10267419772502775
120,1200,1920,49,.75,1.5,0.75,False,30,male,SAAY1407,fr,630,90,1,1,1,1.0,629.0,0.0,0.4413802,0.0,0.05558859192225047
120,1200,1920,49,.75,1.5,0.75,False,30,male,SAAY1407,fr,631,90,1,1,1,1.0,630.0,1.0,0.5004304,1.0,0.05898935383537662
120,1200,1920,49,.75,1.5,0.75,False,30,male,SAAY1407,fr,632,90,2,0,1,1.0,631.0,0.0,0.3716247,1.0,0.10066194775589994
120,1200,1920,49,.75,1.5,0.75,False,30,male,SAAY1407,fr,633,90,2,1,1,1.0,632.0,1.0,0.2842276,1.0,0.10066194775589994
120,1200,1920,49,.75,1.5,0.75,False,30,male,SAAY1407,fr,634,90,2,0,1,1.0,633.0,0.0,0.3833175,1.0,0.09868913466602672
120,1200,1920,49,.75,1.5,0.75,False,30,male,SAAY1407,fr,635,90,2,0,1,1.0,634.0,0.0,0.345819,1.0,0.09868913466602672
120,1200,1920,49,.75,1.5,0.75,False,30,male,SAAY1407,fr,636,90,2,0,1,1.0,635.0,0.0,0.3875579,1.0,0.09675498555568446
120,1200,1920,49,.75,1.5,0.75,False,30,male,SAAY1407,fr,637,90,1,0,1,1.0,636.0,0.0,0.402108,1.0,0.05783325689900704
120,1200,1920,49,.75,1.5,0.75,False,30,male,SAAY1407,fr,638,90,1,0,1,1.0,637.0,0.0,0.3567418,1.0,0.05558859192225047
120,1200,1920,49,.75,1.5,0.75,False,30,male,SAAY1407,fr,639,90,2,0,1,1.0,638.0,0.0,0.3549244,1.0,0.09675498555568446
120,1200,1920,49,.75,1.5,0.75,False,30,male,SAAY1407,fr,640,90,1,0,1,1.0,639.0,0.0,0.298059,1.0,0.05449914447724605
120,1200,1920,49,.75,1.5,0.75,False,30,male,SAAY1407,fr,641,0,1,1,2,1.0,640.0,0.0,0.384417,0.0,0.011186921786571522
120,1200,1920,49,.75,1.5,0.75,False,30,male,SAAY1407,fr,642,0,2,1,2,1.0,641.0,0.0,0.4466748,0.0,0.01798930257846178
120,1200,1920,49,.75,1.5,0.75,False,30,male,SAAY1407,fr,643,0,2,1,2,1.0,642.0,0.0,0.7785456,0.0,0.018715709851209905
120,1200,1920,49,.75,1.5,0.75,False,30,male,SAAY1407,fr,644,0,1,0,2,1.0,643.0,1.0,0.42619,0.0,0.0121086173723749
120,1200,1920,49,.75,1.5,0.75,False,30,male,SAAY1407,fr,645,0,2,0,2,1.0,644.0,1.0,0.5452922,0.0,0.019860687103523404
120,1200,1920,49,.75,1.5,0.75,False,30,male,SAAY1407,fr,646,0,1,0,2,1.0,645.0,0.0,0.5435147,1.0,0.012849390314387626
120,1200,1920,49,.75,1.5,0.75,False,30,male,SAAY1407,fr,647,0,2,1,2,1.0,646.0,1.0,0.4463666,1.0,0.021075711012829217
120,1200,1920,49,.75,1.5,0.75,False,30,male,SAAY1407,fr,648,0,2,0,2,1.0,647.0,0.0,0.4144885,1.0,0.021075711012829217
120,1200,1920,49,.75,1.5,0.75,False,30,male,SAAY1407,fr,649,0,2,0,2,1.0,648.0,0.0,0.3683554,1.0,0.020662660803773863
120,1200,1920,49,.75,1.5,0.75,False,30,male,SAAY1407,fr,650,0,1,0,2,1.0,649.0,0.0,0.3673642,1.0,0.012849390314387626
120,1200,1920,49,.75,1.5,0.75,False,30,male,SAAY1407,fr,651,0,2,0,2,1.0,650.0,0.0,0.3257971,1.0,0.020662660803773863
120,1200,1920,49,.75,1.5,0.75,False,30,male,SAAY1407,fr,652,0,2,1,2,1.0,651.0,0.0,0.575786,0.0,0.015974909092232634
120,1200,1920,49,.75,1.5,0.75,False,30,male,SAAY1407,fr,653,0,1,1,2,1.0,652.0,0.0,0.4636781,0.0,0.012849390314387626
120,1200,1920,49,.75,1.5,0.75,False,30,male,SAAY1407,fr,654,0,1,0,2,1.0,653.0,1.0,0.4822088,0.0,0.013368248148594363
120,1200,1920,49,.75,1.5,0.75,False,30,male,SAAY1407,fr,655,0,1,0,2,1.0,654.0,0.0,0.5559989,1.0,0.013908057440071123
120,1200,1920,49,.75,1.5,0.75,False,30,male,SAAY1407,fr,656,0,2,0,2,1.0,655.0,0.0,0.4505334,1.0,0.020662660803773863
120,1200,1920,49,.75,1.5,0.75,False,30,male,SAAY1407,fr,657,0,2,1,2,1.0,656.0,1.0,0.5669777,1.0,0.020257705717824762
120,1200,1920,49,.75,1.5,0.75,False,30,male,SAAY1407,fr,658,0,2,0,2,1.0,657.0,0.0,0.3958327,1.0,0.020257705717824762
120,1200,1920,49,.75,1.5,0.75,False,30,male,SAAY1407,fr,659,0,2,1,2,1.0,658.0,1.0,0.4088424,1.0,0.019860687103523404
120,1200,1920,49,.75,1.5,0.75,False,30,male,SAAY1407,fr,660,0,1,0,2,1.0,659.0,0.0,0.4078458,1.0,0.013908057440071123
120,1200,1920,49,.75,1.5,0.75,False,30,male,SAAY1407,fr,661,0,1,1,2,1.0,660.0,0.0,0.3394578,0.0,0.013635481770871715
120,1200,1920,49,.75,1.5,0.75,False,30,male,SAAY1407,fr,662,0,1,1,2,1.0,661.0,0.0,0.4642979,0.0,0.014758915330012263
120,1200,1920,49,.75,1.5,0.75,False,30,male,SAAY1407,fr,663,0,2,1,2,1.0,662.0,1.0,0.2714051,1.0,0.019860687103523404
120,1200,1920,49,.75,1.5,0.75,False,30,male,SAAY1407,fr,664,0,1,0,2,1.0,663.0,0.0,0.4061729,1.0,0.01629425032339594
120,1200,1920,49,.75,1.5,0.75,False,30,male,SAAY1407,fr,665,0,2,0,2,1.0,664.0,1.0,0.309943,0.0,0.019471449418725976
120,1200,1920,49,.75,1.5,0.75,False,30,male,SAAY1407,fr,666,0,1,1,2,1.0,665.0,1.0,0.5000884,1.0,0.015974909092232634
120,1200,1920,49,.75,1.5,0.75,False,30,male,SAAY1407,fr,667,0,2,1,2,1.0,666.0,1.0,0.4755665,1.0,0.021075711012829217
120,1200,1920,49,.75,1.5,0.75,False,30,male,SAAY1407,fr,668,0,1,0,2,1.0,667.0,0.0,0.3387411,1.0,0.01566182643816842
120,1200,1920,49,.75,1.5,0.75,False,30,male,SAAY1407,fr,669,0,1,1,2,1.0,668.0,1.0,0.4193423,1.0,0.01566182643816842
120,1200,1920,49,.75,1.5,0.75,False,30,male,SAAY1407,fr,670,0,2,0,2,1.0,669.0,0.0,0.4661441,1.0,0.01629425032339594
120,1200,1920,49,.75,1.5,0.75,False,30,male,SAAY1407,fr,671,0,1,0,2,1.0,670.0,0.0,0.3919217,1.0,0.01535487970310756
120,1200,1920,49,.75,1.5,0.75,False,30,male,SAAY1407,fr,672,0,2,1,2,1.0,671.0,0.0,0.4297993,0.0,0.015974909092232634
120,1200,1920,49,.75,1.5,0.75,False,30,male,SAAY1407,fr,673,0,2,1,2,1.0,672.0,1.0,0.30754,1.0,0.020662660803773863
120,1200,1920,49,.75,1.5,0.75,False,30,male,SAAY1407,fr,674,0,2,0,2,1.0,673.0,0.0,0.3776656,1.0,0.020662660803773863
120,1200,1920,49,.75,1.5,0.75,False,30,male,SAAY1407,fr,675,0,2,0,2,1.0,674.0,1.0,0.6371602,0.0,0.016952211458201936
120,1200,1920,49,.75,1.5,0.75,False,30,male,SAAY1407,fr,676,0,1,0,2,1.0,675.0,0.0,0.3485173,1.0,0.015053948632856707
120,1200,1920,49,.75,1.5,0.75,False,30,male,SAAY1407,fr,677,0,2,0,2,1.0,676.0,0.0,0.4272713,1.0,0.020662660803773863
120,1200,1920,49,.75,1.5,0.75,False,30,male,SAAY1407,fr,678,0,2,1,2,1.0,677.0,1.0,0.2634387,1.0,0.020662660803773863
120,1200,1920,49,.75,1.5,0.75,False,30,male,SAAY1407,fr,679,0,2,1,2,1.0,678.0,1.0,0.3478509,1.0,0.020257705717824762
120,1200,1920,49,.75,1.5,0.75,False,30,male,SAAY1407,fr,680,0,1,1,2,1.0,679.0,1.0,0.3857436,1.0,0.015053948632856707
120,1200,1920,49,.75,1.5,0.75,False,30,male,SAAY1407,fr,681,0,2,0,2,1.0,680.0,0.0,0.7531265,1.0,0.020257705717824762
120,1200,1920,49,.75,1.5,0.75,False,30,male,SAAY1407,fr,682,0,2,0,2,1.0,681.0,0.0,0.3968296,1.0,0.01729108913486021
120,1200,1920,49,.75,1.5,0.75,False,30,male,SAAY1407,fr,683,0,2,1,2,1.0,682.0,1.0,0.3974959,1.0,0.016952211458201936
120,1200,1920,49,.75,1.5,0.75,False,30,male,SAAY1407,fr,684,0,1,0,2,1.0,683.0,0.0,0.3641895,1.0,0.014758915330012263
120,1200,1920,49,.75,1.5,0.75,False,30,male,SAAY1407,fr,685,0,2,0,2,1.0,684.0,0.0,0.3557953,1.0,0.016952211458201936
120,1200,1920,49,.75,1.5,0.75,False,30,male,SAAY1407,fr,686,0,1,1,2,1.0,685.0,1.0,0.3466664,1.0,0.00899818106145444
120,1200,1920,49,.75,1.5,0.75,False,30,male,SAAY1407,fr,687,0,2,1,2,1.0,686.0,1.0,0.321525,1.0,0.0166199752417109
120,1200,1920,49,.75,1.5,0.75,False,30,male,SAAY1407,fr,688,0,1,0,2,1.0,687.0,1.0,0.3039619,0.0,0.00882183111215549
120,1200,1920,49,.75,1.5,0.75,False,30,male,SAAY1407,fr,689,0,2,0,2,1.0,688.0,0.0,0.2860841,1.0,0.01629425032339594
120,1200,1920,49,.75,1.5,0.75,False,30,male,SAAY1407,fr,690,0,2,0,2,1.0,689.0,0.0,0.3429661,1.0,0.015974909092232634
120,1200,1920,49,.75,1.5,0.75,False,30,male,SAAY1407,fr,691,0,1,0,2,1.0,690.0,0.0,0.341373,1.0,0.014469664207771075
120,1200,1920,49,.75,1.5,0.75,False,30,male,SAAY1407,fr,692,0,2,1,2,1.0,691.0,1.0,0.3241418,1.0,0.01566182643816842
120,1200,1920,49,.75,1.5,0.75,False,30,male,SAAY1407,fr,693,0,1,1,2,1.0,692.0,1.0,0.3391206,1.0,0.014469664207771075
120,1200,1920,49,.75,1.5,0.75,False,30,male,SAAY1407,fr,694,0,1,1,2,1.0,693.0,1.0,0.3479816,1.0,0.014186081944646352
120,1200,1920,49,.75,1.5,0.75,False,30,male,SAAY1407,fr,695,0,2,1,2,1.0,694.0,1.0,0.3141832,1.0,0.01535487970310756
120,1200,1920,49,.75,1.5,0.75,False,30,male,SAAY1407,fr,696,0,2,1,2,1.0,695.0,1.0,0.3851215,1.0,0.015053948632856707
120,1200,1920,49,.75,1.5,0.75,False,30,male,SAAY1407,fr,697,0,2,0,2,1.0,696.0,0.0,0.2961743,1.0,0.014758915330012263
120,1200,1920,49,.75,1.5,0.75,False,30,male,SAAY1407,fr,698,0,1,1,2,1.0,697.0,1.0,0.5513638,1.0,0.014186081944646352
120,1200,1920,49,.75,1.5,0.75,False,30,male,SAAY1407,fr,699,0,1,0,2,1.0,698.0,1.0,0.4893104,0.0,0.013908057440071123
120,1200,1920,49,.75,1.5,0.75,False,30,male,SAAY1407,fr,700,0,2,0,2,1.0,699.0,0.0,0.3994094,1.0,0.014469664207771075
120,1200,1920,49,.75,1.5,0.75,False,30,male,SAAY1407,fr,701,0,2,1,2,1.0,700.0,0.0,0.4240524,0.0,0.014186081944646352
120,1200,1920,49,.75,1.5,0.75,False,30,male,SAAY1407,fr,702,0,1,0,2,1.0,701.0,0.0,0.3754163,1.0,0.009178056277132024
120,1200,1920,49,.75,1.5,0.75,False,30,male,SAAY1407,fr,703,0,1,1,2,1.0,702.0,1.0,0.4004583,1.0,0.00899818106145444
120,1200,1920,49,.75,1.5,0.75,False,30,male,SAAY1407,fr,704,0,1,0,2,1.0,703.0,0.0,0.3683327,1.0,0.00864893733965554
120,1200,1920,49,.75,1.5,0.75,False,30,male,SAAY1407,fr,705,0,1,1,2,1.0,704.0,0.0,0.4989676,0.0,0.008479432008420128
120,1200,1920,49,.75,1.5,0.75,False,30,male,SAAY1407,fr,706,0,2,0,2,1.0,705.0,0.0,0.3372935,1.0,0.014758915330012263
120,1200,1920,49,.75,1.5,0.75,False,30,male,SAAY1407,fr,707,0,2,1,2,1.0,706.0,0.0,0.3707619,0.0,0.014469664207771075
120,1200,1920,49,.75,1.5,0.75,False,30,male,SAAY1407,fr,708,0,2,1,2,1.0,707.0,1.0,0.2688874,1.0,0.015053948632856707
120,1200,1920,49,.75,1.5,0.75,False,30,male,SAAY1407,fr,709,0,1,1,2,1.0,708.0,1.0,0.4126536,1.0,0.00899818106145444
120,1200,1920,49,.75,1.5,0.75,False,30,male,SAAY1407,fr,710,0,1,1,2,1.0,709.0,0.0,0.5984309,0.0,0.00864893733965554
120,1200,1920,49,.75,1.5,0.75,False,30,male,SAAY1407,fr,711,0,1,1,2,1.0,710.0,1.0,0.4854206,1.0,0.01535487970310756
120,1200,1920,49,.75,1.5,0.75,False,30,male,SAAY1407,fr,712,0,1,1,2,1.0,711.0,1.0,0.3083926,1.0,0.015053948632856707
120,1200,1920,49,.75,1.5,0.75,False,30,male,SAAY1407,fr,713,0,2,0,2,1.0,712.0,0.0,0.3475364,1.0,0.014758915330012263
120,1200,1920,49,.75,1.5,0.75,False,30,male,SAAY1407,fr,714,0,1,1,2,1.0,713.0,1.0,0.3380984,1.0,0.015053948632856707
120,1200,1920,49,.75,1.5,0.75,False,30,male,SAAY1407,fr,715,0,1,0,2,1.0,714.0,1.0,0.5318989,0.0,0.014758915330012263
120,1200,1920,49,.75,1.5,0.75,False,30,male,SAAY1407,fr,716,0,1,1,2,1.0,715.0,1.0,0.3328967,1.0,0.01629425032339594
120,1200,1920,49,.75,1.5,0.75,False,30,male,SAAY1407,fr,717,0,1,0,2,1.0,716.0,0.0,0.3373667,1.0,0.015974909092232634
120,1200,1920,49,.75,1.5,0.75,False,30,male,SAAY1407,fr,718,0,1,1,2,1.0,717.0,1.0,0.3951608,1.0,0.009178056277132024
120,1200,1920,49,.75,1.5,0.75,False,30,male,SAAY1407,fr,719,0,1,0,2,1.0,718.0,1.0,0.374578,0.0,0.00899818106145444
120,1200,1920,49,.75,1.5,0.75,False,30,male,SAAY1407,fr,720,0,1,0,2,1.0,719.0,1.0,0.3389677,0.0,0.01566182643816842
