im1name,im2name,cond,ori,mask,rt,acc,contrast,trialno,staircase
192-220F.png,111-216F.png,dd,inv,192-220F_mask.png,0.47555830000783317,1,10.036553609986138,0,2
13_eyes.png,65_eyes.png,isod,up,13_eyes_mask.png,0.4559155000024475,1,10.036553609986138,1,2
135_eyes.png,197_eyes.png,isod,inv,135_eyes_mask.png,1.045273099996848,1,10.036553609986138,2,1
111-216F.png,111-220F.png,sd,inv,111-216F_mask.png,0.5147121000045445,1,10.036553609986138,3,2
2-8.png,2-8.png,ss,up,2-8_mask.png,0.5172514000005322,1,10.036553609986138,4,2
147_eyes.png,147_eyes.png,isos,inv,147_eyes_mask.png,0.6002950999973109,1,8.607263960508302,5,1
25_eyes.png,25_eyes.png,isos,up,25_eyes_mask.png,0.44808929999999236,1,8.607263960508302,6,2
151-146.png,151-87.png,sd,inv,151-146_mask.png,0.7094466999988072,0,8.607263960508302,7,2
44-100.png,123-100.png,ds,up,44-100_mask.png,0.5602344999933848,0,10.036553609986138,8,1
139-135F.png,139-197F.png,sd,inv,139-135F_mask.png,0.5609037999965949,1,10.036553609986138,9,1
7-147.png,7-55.png,sd,inv,7-147_mask.png,0.5689417999965372,1,8.607263960508302,10,1
208-13F.png,20-65F.png,dd,up,208-13F_mask.png,0.5370825000136392,1,8.607263960508302,11,2
38_eyes.png,9_eyes.png,isod,inv,38_eyes_mask.png,0.5465938999986975,0,10.036553609986138,12,2
66_eyes.png,148_eyes.png,isod,inv,66_eyes_mask.png,0.49131370001123287,0,18.555068267735685,13,2
146-25.png,147-25.png,ds,up,146-25_mask.png,0.7424171000020579,1,10.036553609986138,14,2
129-37F.png,129-94F.png,sd,up,129-37F_mask.png,0.7195716999995057,1,8.607263960508302,15,2
151-87.png,49-146.png,dd,up,151-87_mask.png,0.7379166000027908,1,10.036553609986138,16,1
197-192F.png,135-103F.png,dd,inv,197-192F_mask.png,1.0915545000025304,1,10.036553609986138,17,1
9_eyes.png,9_eyes.png,isos,up,9_eyes_mask.png,0.6469435000035446,1,10.036553609986138,18,1
135-103F.png,197-103F.png,ds,up,135-103F_mask.png,0.516611400002148,1,18.555068267735685,19,1
66_eyes.png,66_eyes.png,isos,up,66_eyes_mask.png,0.5515673000045354,1,7.970863616012756,20,2
96_eyes.png,96_eyes.png,isos,inv,96_eyes_mask.png,0.42461409998941235,1,7.970863616012756,21,1
160-76.png,160-76.png,ss,inv,160-76_mask.png,0.5749603000003844,1,8.607263960508302,22,2
25-147.png,25-147.png,ss,up,25-147_mask.png,0.5270443000044907,1,8.607263960508302,23,1
160-2.png,24-76.png,dd,inv,160-2_mask.png,0.5769819999986794,0,7.970863616012756,24,2
139-197F.png,103-135F.png,dd,up,139-197F_mask.png,0.6092972000042209,1,7.970863616012756,25,1
41-208F.png,41-208F.png,ss,inv,41-208F_mask.png,0.4320480000023963,1,11.703185684592045,26,2
49-87.png,151-146.png,dd,inv,49-87_mask.png,0.4941042999998899,1,8.607263960508302,27,1
46-8.png,2-8.png,ds,inv,46-8_mask.png,0.4656888000026811,1,14.736125994561542,28,2
125_eyes.png,125_eyes.png,isos,inv,125_eyes_mask.png,0.8296152999973856,1,29.418533354863488,29,2
103_eyes.png,103_eyes.png,isos,inv,103_eyes_mask.png,0.6830208999890601,0,27.24339792884558,30,2
135_eyes.png,197_eyes.png,isod,up,135_eyes_mask.png,0.6153199999971548,1,6.8357455957761015,31,2
151-146.png,49-146.png,ds,inv,151-146_mask.png,0.7344491000112612,1,7.970863616012756,32,1
96-128F.png,96-128F.png,ss,up,96-128F_mask.png,0.5201624000037555,1,6.8357455957761015,33,1
96-225F.png,96-128F.png,sd,up,96-225F_mask.png,0.48241070000221953,1,14.736125994561542,34,1
66_eyes.png,148_eyes.png,isod,inv,66_eyes_mask.png,0.4066949999978533,0,6.8357455957761015,35,1
131-94F.png,131-94F.png,ss,inv,131-94F_mask.png,0.4539543999999296,1,7.970863616012756,36,1
225-96F.png,128-96F.png,ds,inv,225-96F_mask.png,0.5472920000029262,0,6.8357455957761015,37,1
145-66.png,145-66.png,ss,up,145-66_mask.png,0.5329381000046851,1,7.970863616012756,38,2
151-87.png,151-146.png,sd,up,151-87_mask.png,0.7032716999965487,1,7.970863616012756,39,2
125-38.png,125-38.png,ss,inv,125-38_mask.png,0.5219639999995707,0,6.8357455957761015,40,1
225-30F.png,128-30F.png,ds,inv,225-30F_mask.png,0.9162358000030508,1,11.703185684592045,41,2
128-96F.png,128-30F.png,sd,up,128-96F_mask.png,0.8629921999963699,0,11.703185684592045,42,1
25_eyes.png,7_eyes.png,isod,up,25_eyes_mask.png,0.5003530000103638,1,8.607263960508302,43,1
44-100.png,123-125.png,dd,up,44-100_mask.png,0.5276722999988124,1,6.8357455957761015,44,2
208_eyes.png,208_eyes.png,isos,up,208_eyes_mask.png,0.6662811999995029,1,7.970863616012756,45,1
55_eyes.png,147_eyes.png,isod,up,55_eyes_mask.png,0.5831270000053337,1,6.8357455957761015,46,1
17-38.png,125-38.png,ds,up,17-38_mask.png,0.4951158000039868,1,6.8357455957761015,47,2
125-9.png,125-9.png,ss,up,125-9_mask.png,0.44473449999350123,1,6.330327047908198,48,1
147-7.png,147-7.png,ss,inv,147-7_mask.png,0.4822295000049053,1,9.294475034930333,49,2
25-55.png,7-55.png,ds,up,25-55_mask.png,0.5983753000036813,1,6.330327047908198,50,2
52-66.png,145-148.png,dd,inv,52-66_mask.png,0.4300554999936139,0,8.607263960508302,51,2
103-197F.png,139-197F.png,ds,up,103-197F_mask.png,0.5318962000019383,1,5.428835233189813,52,2
103_eyes.png,103_eyes.png,isos,inv,103_eyes_mask.png,0.6142869000032078,1,34.30366356811673,53,2
44-125.png,123-100.png,dd,up,44-125_mask.png,0.9566623999999138,1,6.330327047908198,54,2
197_eyes.png,197_eyes.png,isos,up,197_eyes_mask.png,0.6062221999891335,1,6.330327047908198,55,1
208-65F.png,208-13F.png,sd,up,208-65F_mask.png,0.6535352000064449,1,5.0274402453675116,56,2
41-20F.png,41-20F.png,ss,up,41-20F_mask.png,0.6908951999939745,1,5.428835233189813,57,2
125-38.png,17-9.png,dd,up,125-38_mask.png,0.5015952999965521,0,5.428835233189813,58,1
147_eyes.png,55_eyes.png,isod,inv,147_eyes_mask.png,0.8493750000052387,1,34.30366356811673,59,2
139-197F.png,139-135F.png,sd,up,139-197F_mask.png,0.7026905000093393,1,11.655723435152048,60,2
131-37F.png,131-37F.png,ss,up,131-37F_mask.png,0.5539656000037212,1,5.0274402453675116,61,2
96_eyes.png,30_eyes.png,isod,up,96_eyes_mask.png,0.6355944000097224,1,6.330327047908198,62,2
41-20F.png,41-208F.png,sd,inv,41-20F_mask.png,0.6416910999978427,0,9.294475034930333,63,2
123-125.png,123-125.png,ss,inv,123-125_mask.png,0.47917279999819584,1,9.294475034930333,64,1
93_eyes.png,93_eyes.png,isos,inv,93_eyes_mask.png,0.4120898999972269,1,9.294475034930333,65,1
146_eyes.png,87_eyes.png,isod,up,146_eyes_mask.png,0.49853179999627173,1,5.428835233189813,66,1
111-220F.png,111-216F.png,sd,up,111-220F_mask.png,0.7818669999978738,1,21.636252618780404,67,1
148_eyes.png,66_eyes.png,isod,inv,148_eyes_mask.png,0.5336599000002025,1,7.970863616012756,68,1
9_eyes.png,38_eyes.png,isod,inv,9_eyes_mask.png,0.5338790999958292,1,7.381517178581321,69,1
96-128F.png,13-225F.png,dd,inv,96-128F_mask.png,0.5038658999983454,1,7.970863616012756,70,1
38_eyes.png,38_eyes.png,isos,inv,38_eyes_mask.png,0.4115555000025779,1,13.330327047908199,71,1
20_eyes.png,208_eyes.png,isod,up,20_eyes_mask.png,0.5548610999976518,1,5.0274402453675116,72,1
135-192F.png,197-192F.png,ds,up,135-192F_mask.png,0.7239097999990918,1,20.036520266739068,73,1
147_eyes.png,147_eyes.png,isos,up,147_eyes_mask.png,0.8223084000055678,1,5.428835233189813,74,2
216_eyes.png,216_eyes.png,isos,up,216_eyes_mask.png,0.5730380999884801,1,5.0274402453675116,75,2
96-225F.png,96-225F.png,ss,up,96-225F_mask.png,0.5098866000043927,1,6.8357455957761015,76,1
2-8.png,46-8.png,ds,inv,2-8_mask.png,0.3927986000053352,1,9.294475034930333,77,1
125-38.png,17-38.png,ds,up,125-38_mask.png,0.5049854000099003,1,17.183151257649243,78,1
208_eyes.png,20_eyes.png,isod,up,208_eyes_mask.png,0.4607115000108024,1,11.655723435152048,79,2
17-9.png,125-38.png,dd,up,17-9_mask.png,0.5529354000027524,0,11.655723435152048,80,2
17-9.png,125-9.png,ds,inv,17-9_mask.png,0.3787512999988394,1,18.555068267735685,81,2
135-192F.png,197-192F.png,ds,inv,135-192F_mask.png,0.44282620000012685,1,15.9126704834961,82,2
147_eyes.png,55_eyes.png,isod,inv,147_eyes_mask.png,0.5768574999965494,1,29.418533354863488,83,2
160-76.png,24-2.png,dd,inv,160-76_mask.png,0.7130764000030467,0,15.9126704834961,84,2
49-146.png,49-146.png,ss,inv,49-146_mask.png,0.5481939000019338,1,32.22908677181644,85,2
96_eyes.png,96_eyes.png,isos,up,96_eyes_mask.png,0.382190599993919,1,11.655723435152048,86,1
2-8.png,2-93.png,sd,inv,2-8_mask.png,0.5345590000069933,1,7.970863616012756,87,1
41-208F.png,41-20F.png,sd,inv,41-208F_mask.png,0.4565032000100473,0,7.381517178581321,88,1
225_eyes.png,225_eyes.png,isos,inv,225_eyes_mask.png,0.5241557999979705,1,34.24339792884558,89,2
65-20F.png,65-20F.png,ss,inv,65-20F_mask.png,0.47053849999792874,1,7.381517178581321,90,1
208-65F.png,20-13F.png,dd,inv,208-65F_mask.png,0.5230787000036798,1,13.330327047908199,91,1
20-65F.png,208-13F.png,dd,up,20-65F_mask.png,0.6538815000094473,0,13.330327047908199,92,1
135-103F.png,197-103F.png,ds,inv,135-103F_mask.png,0.5154043000075035,1,18.703185684592043,93,1
151-146.png,151-87.png,sd,up,151-146_mask.png,0.710147899997537,1,20.646572368403795,94,1
129-94F.png,129-37F.png,sd,inv,129-94F_mask.png,0.4964659999968717,1,19.637577710370472,95,2
103_eyes.png,192_eyes.png,isod,inv,103_eyes_mask.png,0.8846191999909934,0,6.330327047908198,96,1
24-2.png,24-76.png,sd,up,24-2_mask.png,0.3923741000035079,1,13.646572368403794,97,1
20-13F.png,208-13F.png,ds,inv,20-13F_mask.png,0.5115305999934208,1,11.703185684592045,98,1
216_eyes.png,220_eyes.png,isod,inv,216_eyes_mask.png,0.5468942000006791,1,8.607263960508302,99,1
17-38.png,125-9.png,dd,up,17-38_mask.png,0.588803899998311,1,6.330327047908198,100,1
8_eyes.png,8_eyes.png,isos,inv,8_eyes_mask.png,0.3651060999982292,1,7.381517178581321,101,1
93_eyes.png,8_eyes.png,isod,inv,93_eyes_mask.png,0.5329703999886988,1,27.24339792884558,102,2
128_eyes.png,225_eyes.png,isod,up,128_eyes_mask.png,0.582862399998703,1,4.655723435152049,103,1
146_eyes.png,146_eyes.png,isos,up,146_eyes_mask.png,0.48734829999739304,0,4.311490469647435,104,1
24-2.png,24-2.png,ss,up,24-2_mask.png,0.5235762999946019,1,4.655723435152049,105,2
129-37F.png,129-37F.png,ss,inv,129-37F_mask.png,0.6624294999928679,0,6.330327047908198,106,1
216_eyes.png,216_eyes.png,isos,up,216_eyes_mask.png,0.3879291000048397,1,5.0274402453675116,107,1
2-8.png,46-8.png,ds,up,2-8_mask.png,0.5000725999998394,1,11.703185684592045,108,1
125-9.png,125-38.png,sd,inv,125-9_mask.png,0.48673029999190476,1,9.294475034930333,109,1
197_eyes.png,197_eyes.png,isos,up,197_eyes_mask.png,0.37929979999898933,1,4.655723435152049,110,2
225-30F.png,225-30F.png,ss,inv,225-30F_mask.png,0.44373080000514165,0,25.229086771816444,111,2
87_eyes.png,87_eyes.png,isos,inv,87_eyes_mask.png,0.4494501000008313,1,27.24339792884558,112,2
131-94F.png,129-94F.png,ds,inv,131-94F_mask.png,0.5270576000039,0,7.381517178581321,113,1
125-38.png,17-9.png,dd,inv,125-38_mask.png,0.5857581000018399,1,8.607263960508302,114,1
38_eyes.png,9_eyes.png,isod,up,38_eyes_mask.png,0.5862363000051118,1,4.655723435152049,115,1
2-8.png,46-93.png,dd,up,2-8_mask.png,0.5616167999978643,1,4.311490469647435,116,2
131-94F.png,131-94F.png,ss,up,131-94F_mask.png,0.4180264999886276,1,5.428835233189813,117,1
129-94F.png,131-37F.png,dd,inv,129-94F_mask.png,0.4970768000057433,1,34.30366356811673,118,2
129-37F.png,131-94F.png,dd,up,129-37F_mask.png,0.5731126000027871,1,5.0274402453675116,119,1
13-225F.png,96-128F.png,dd,inv,13-225F_mask.png,0.5176617999968585,1,31.76733339253797,120,2
93_eyes.png,8_eyes.png,isod,up,93_eyes_mask.png,0.5766250999877229,1,4.311490469647435,121,2
129-94F.png,129-94F.png,ss,up,129-94F_mask.png,0.4329498000006424,1,3.992709259641317,122,2
151-87.png,151-87.png,ss,up,151-87_mask.png,0.5426872999960324,0,4.655723435152049,123,1
220_eyes.png,216_eyes.png,isod,inv,220_eyes_mask.png,0.44878029999381397,1,27.24339792884558,124,2
220_eyes.png,220_eyes.png,isos,inv,220_eyes_mask.png,0.6464143000048352,1,6.8357455957761015,125,1
44-125.png,44-100.png,sd,inv,44-125_mask.png,0.47615610000502784,0,13.646572368403794,126,1
128-96F.png,128-30F.png,sd,inv,128-96F_mask.png,0.5439852999988943,1,12.637577710370472,127,2
13_eyes.png,13_eyes.png,isos,up,13_eyes_mask.png,0.43400880000262987,1,3.992709259641317,128,2
125-38.png,125-9.png,sd,up,125-38_mask.png,0.5042830000020331,1,4.655723435152049,129,2
46-8.png,46-93.png,sd,up,46-8_mask.png,0.47583080000185873,1,10.036553609986138,130,1
94_eyes.png,94_eyes.png,isos,inv,94_eyes_mask.png,0.42410479999671225,1,23.36370892508618,131,2
139-197F.png,103-197F.png,ds,inv,139-197F_mask.png,0.47864029998891056,1,10.036553609986138,132,2
2_eyes.png,76_eyes.png,isod,up,2_eyes_mask.png,0.6110209000034956,1,3.6974979636981815,133,2
147-25.png,146-25.png,ds,inv,147-25_mask.png,0.9056645999953616,1,8.607263960508302,134,2
129-94F.png,131-37F.png,dd,up,129-94F_mask.png,0.43747559998882934,1,3.6974979636981815,135,2
197-103F.png,197-103F.png,ss,inv,197-103F_mask.png,0.5866727999964496,0,7.381517178581321,136,1
46-93.png,46-8.png,sd,inv,46-93_mask.png,0.5700015999900643,1,7.970863616012756,137,2
20-13F.png,208-13F.png,ds,up,20-13F_mask.png,0.7789466000103857,0,4.311490469647435,138,2
2-8.png,2-8.png,ss,inv,2-8_mask.png,0.4677479999954812,1,29.418533354863488,139,2
111-216F.png,192-220F.png,dd,inv,111-216F_mask.png,0.4479565000074217,1,13.646572368403794,140,1
160-2.png,24-2.png,ds,up,160-2_mask.png,0.5092810000060126,1,9.294475034930333,141,1
145-148.png,145-66.png,sd,up,145-148_mask.png,0.48825379999470897,1,5.0274402453675116,142,2
125-9.png,17-9.png,ds,up,125-9_mask.png,1.1726068999996642,0,4.655723435152049,143,2
100_eyes.png,100_eyes.png,isos,up,100_eyes_mask.png,0.7391105999995489,0,4.311490469647435,144,1
148_eyes.png,66_eyes.png,isod,inv,148_eyes_mask.png,0.46920929999032523,0,5.862277928868478,145,1
87_eyes.png,87_eyes.png,isos,up,87_eyes_mask.png,0.5305003999965265,0,5.0274402453675116,146,1
192-220F.png,192-220F.png,ss,inv,192-220F_mask.png,0.5567108999966877,1,27.24339792884558,147,2
37_eyes.png,94_eyes.png,isod,inv,37_eyes_mask.png,0.6620062000001781,0,21.636252618780404,148,2
52-148.png,145-66.png,dd,inv,52-148_mask.png,0.8350415000022622,0,10.036553609986138,149,1
111-216F.png,192-220F.png,dd,up,111-216F_mask.png,0.5611887999984901,1,5.862277928868478,150,1
25-55.png,25-147.png,sd,up,25-55_mask.png,0.6506155999959446,1,5.428835233189813,151,2
46-93.png,2-8.png,dd,inv,46-93_mask.png,0.5202263000101084,1,27.24339792884558,152,2
146-25.png,146-25.png,ss,inv,146-25_mask.png,0.617216600003303,1,17.183151257649243,153,1
30_eyes.png,30_eyes.png,isos,inv,30_eyes_mask.png,0.5359022000047844,1,7.970863616012756,154,1
24-76.png,160-76.png,ds,up,24-76_mask.png,0.7614791999949375,1,5.0274402453675116,155,2
128-30F.png,128-30F.png,ss,inv,128-30F_mask.png,0.5861812000075588,1,14.736125994561542,156,1
147-25.png,147-25.png,ss,inv,147-25_mask.png,0.5046990999981062,1,21.636252618780404,157,2
41-20F.png,41-208F.png,sd,up,41-20F_mask.png,0.6282197999971686,0,4.655723435152049,158,2
7_eyes.png,25_eyes.png,isod,up,7_eyes_mask.png,0.5066881000093417,1,3.4241138792010055,159,2
7-147.png,25-147.png,ds,inv,7-147_mask.png,0.7343802000104915,1,20.036520266739068,160,1
111-220F.png,111-216F.png,sd,inv,111-220F_mask.png,0.46438530000159517,1,17.183151257649243,161,1
139-135F.png,103-197F.png,dd,inv,139-135F_mask.png,0.5335311999951955,1,13.036520266739068,162,2
20-13F.png,208-65F.png,dd,inv,20-13F_mask.png,0.4156206000043312,0,5.637577710370472,163,1
20_eyes.png,20_eyes.png,isos,up,20_eyes_mask.png,0.5428257000021404,0,3.4241138792010055,164,2
8_eyes.png,93_eyes.png,isod,up,8_eyes_mask.png,0.4566071000008378,1,6.330327047908198,165,1
65-208F.png,41-20F.png,dd,up,65-208F_mask.png,0.5499873999942793,1,3.4241138792010055,166,2
197-192F.png,135-103F.png,dd,up,197-192F_mask.png,0.535032300002058,1,3.4241138792010055,167,2
17-38.png,17-38.png,ss,up,17-38_mask.png,0.6812131999904523,0,3.170943154762479,168,2
87_eyes.png,146_eyes.png,isod,up,87_eyes_mask.png,0.5739655000070343,1,1.5,169,1
225_eyes.png,225_eyes.png,isos,inv,225_eyes_mask.png,0.7186184000020148,0,6.8357455957761015,170,1
135-103F.png,135-103F.png,ss,up,135-103F_mask.png,0.9694847999926424,1,1.5,171,2
197-103F.png,135-103F.png,ds,up,197-103F_mask.png,0.5704523999884259,1,1.5,172,2
65-20F.png,65-208F.png,sd,inv,65-20F_mask.png,0.6677224000013666,1,7.381517178581321,173,2
65-208F.png,65-208F.png,ss,up,65-208F_mask.png,0.5764051000005566,1,5.0274402453675116,174,1
139-197F.png,139-135F.png,sd,inv,139-197F_mask.png,0.5768316000030609,1,6.8357455957761015,175,2
192_eyes.png,103_eyes.png,isod,inv,192_eyes_mask.png,0.6413514000014402,1,29.418533354863488,176,2
76_eyes.png,76_eyes.png,isos,inv,76_eyes_mask.png,0.4628499999962514,1,27.24339792884558,177,2
41-20F.png,65-20F.png,ds,inv,41-20F_mask.png,0.5557631999981822,1,6.330327047908198,178,2
208-65F.png,20-65F.png,ds,up,208-65F_mask.png,1.2611500000057276,1,8.607263960508302,179,1
20-65F.png,20-13F.png,sd,up,20-65F_mask.png,0.6738817000004929,1,7.970863616012756,180,1
7-147.png,7-147.png,ss,up,7-147_mask.png,0.6861261000012746,1,4.655723435152049,181,1
192_eyes.png,103_eyes.png,isod,up,192_eyes_mask.png,0.5705151000001933,1,3.6974979636981815,182,2
146_eyes.png,146_eyes.png,isos,up,146_eyes_mask.png,0.7228025999938836,0,1.5,183,2
131-37F.png,131-94F.png,sd,inv,131-37F_mask.png,0.7017580999963684,0,15.9126704834961,184,1
197-103F.png,135-103F.png,ds,inv,197-103F_mask.png,0.4894773999985773,1,16.36370892508618,185,1
96-128F.png,96-225F.png,sd,up,96-128F_mask.png,0.5498040999955265,1,7.381517178581321,186,1
65-20F.png,41-208F.png,dd,up,65-20F_mask.png,1.0791422000038438,0,1.5,187,1
44-125.png,123-125.png,ds,up,44-125_mask.png,1.5718101999955252,0,1.5,188,1
197_eyes.png,197_eyes.png,isos,inv,197_eyes_mask.png,0.5569777000055183,1,18.229086771816444,189,2
7_eyes.png,25_eyes.png,isod,inv,7_eyes_mask.png,0.510047100004158,1,3.837880352311993,190,1
146-7.png,147-7.png,ds,inv,146-7_mask.png,0.45726189999550115,1,1.5,191,2
128-30F.png,128-96F.png,sd,up,128-30F_mask.png,0.9027669999923091,1,6.8357455957761015,192,1
208_eyes.png,208_eyes.png,isos,inv,208_eyes_mask.png,0.3943357999960426,1,10.837880352311993,193,1
65-208F.png,65-20F.png,sd,inv,65-208F_mask.png,0.6179915999964578,1,23.36370892508618,194,1
139-197F.png,103-135F.png,dd,inv,139-197F_mask.png,0.7770473999989918,1,20.036520266739068,195,2
135-192F.png,135-192F.png,ss,inv,135-192F_mask.png,0.543859400000656,1,12.637577710370472,196,1
125-9.png,125-38.png,sd,up,125-9_mask.png,0.3856868000002578,0,5.428835233189813,197,2
65_eyes.png,13_eyes.png,isod,inv,65_eyes_mask.png,0.578082700012601,1,8.607263960508302,198,1
96-225F.png,96-128F.png,sd,inv,96-225F_mask.png,0.6743389000039315,0,5.862277928868478,199,2
123-100.png,44-100.png,ds,inv,123-100_mask.png,0.49167070000839885,1,7.381517178581321,200,2
65_eyes.png,13_eyes.png,isod,up,65_eyes_mask.png,0.4958609000022989,1,5.428835233189813,201,1
111-216F.png,192-216F.png,ds,up,111-216F_mask.png,0.5637947999930475,1,6.330327047908198,202,1
225-96F.png,128-96F.png,ds,up,225-96F_mask.png,0.571121699991636,0,7.381517178581321,203,2
46-8.png,2-93.png,dd,inv,46-8_mask.png,0.5321377000072971,1,10.837880352311993,204,1
103-197F.png,103-197F.png,ss,inv,103-197F_mask.png,0.5665301000117324,1,18.555068267735685,205,2
225_eyes.png,128_eyes.png,isod,up,225_eyes_mask.png,0.623517100000754,1,3.4241138792010055,206,2
208-13F.png,208-13F.png,ss,inv,208-13F_mask.png,0.4540932999952929,1,17.183151257649243,207,2
192-220F.png,192-216F.png,sd,up,192-220F_mask.png,0.523573700003908,1,12.637577710370472,208,2
225-96F.png,128-30F.png,dd,up,225-96F_mask.png,0.6059071000054246,1,4.655723435152049,209,1
2_eyes.png,2_eyes.png,isos,inv,2_eyes_mask.png,0.46158800000557676,1,7.970863616012756,210,1
129-37F.png,131-37F.png,ds,up,129-37F_mask.png,0.5149418999935733,1,10.036553609986138,211,2
208_eyes.png,20_eyes.png,isod,up,208_eyes_mask.png,0.45429259999946225,0,5.0274402453675116,212,1
7-55.png,7-147.png,sd,inv,7-55_mask.png,0.5394862000102876,0,6.8357455957761015,213,2
100_eyes.png,125_eyes.png,isod,up,100_eyes_mask.png,0.5972585999988951,0,3.4241138792010055,214,2
13_eyes.png,65_eyes.png,isod,inv,13_eyes_mask.png,0.5093905000103405,0,25.229086771816444,215,2
20-13F.png,20-65F.png,sd,inv,20-13F_mask.png,0.48033200000645593,0,20.036520266739068,216,1
125_eyes.png,125_eyes.png,isos,up,125_eyes_mask.png,0.5650086999958148,0,3.6974979636981815,217,2
139-197F.png,139-197F.png,ss,up,139-197F_mask.png,0.6222360999963712,1,4.311490469647435,218,1
52-66.png,52-66.png,ss,up,52-66_mask.png,0.49287649999314453,1,3.4241138792010055,219,2
65_eyes.png,65_eyes.png,isos,up,65_eyes_mask.png,0.6090868999890517,1,4.311490469647435,220,2
49-87.png,151-146.png,dd,up,49-87_mask.png,0.5762872999912361,1,3.4241138792010055,221,2
17-9.png,17-9.png,ss,inv,17-9_mask.png,0.5126363000017591,1,9.294475034930333,222,1
128_eyes.png,128_eyes.png,isos,up,128_eyes_mask.png,0.5476169000030495,1,6.330327047908198,223,1
17-9.png,17-9.png,ss,up,17-9_mask.png,0.46921400001156144,1,3.170943154762479,224,2
7_eyes.png,7_eyes.png,isos,inv,7_eyes_mask.png,0.7784611999959452,1,29.418533354863488,225,2
49-146.png,151-87.png,dd,inv,49-146_mask.png,0.5789368999976432,1,8.607263960508302,226,1
52-148.png,145-148.png,ds,inv,52-148_mask.png,0.5076395999931265,1,8.607263960508302,227,2
225_eyes.png,128_eyes.png,isod,inv,225_eyes_mask.png,0.398918799997773,0,6.8357455957761015,228,1
147-25.png,146-7.png,dd,up,147-25_mask.png,0.3825131999910809,0,3.170943154762479,229,2
96-225F.png,13-225F.png,ds,inv,96-225F_mask.png,0.5189355999900727,1,27.24339792884558,230,1
160-2.png,24-76.png,dd,up,160-2_mask.png,0.4976033999992069,0,3.992709259641317,231,1
103-135F.png,103-135F.png,ss,up,103-135F_mask.png,0.531817900002352,1,4.655723435152049,232,1
220_eyes.png,216_eyes.png,isod,inv,220_eyes_mask.png,0.7902134000032675,1,29.418533354863488,233,2
123-125.png,44-125.png,ds,up,123-125_mask.png,0.6298306999960914,0,6.330327047908198,234,1
2-8.png,46-93.png,dd,inv,2-8_mask.png,0.5083362000004854,1,15.9126704834961,235,2
37_eyes.png,37_eyes.png,isos,up,37_eyes_mask.png,0.4635562000039499,1,5.862277928868478,236,1
20-13F.png,20-65F.png,sd,up,20-13F_mask.png,0.5245756999938749,1,7.381517178581321,237,1
145-66.png,52-66.png,ds,inv,145-66_mask.png,0.8633447000029264,1,25.229086771816444,238,1
125_eyes.png,125_eyes.png,isos,inv,125_eyes_mask.png,0.4686820000060834,1,29.418533354863488,239,2
103-135F.png,139-197F.png,dd,inv,103-135F_mask.png,0.5932294999947771,1,13.646572368403794,240,2
52-66.png,145-66.png,ds,up,52-66_mask.png,0.43330870001227595,1,8.607263960508302,241,2
135_eyes.png,197_eyes.png,isod,up,135_eyes_mask.png,0.46345139999175444,1,5.428835233189813,242,1
225-96F.png,225-96F.png,ss,inv,225-96F_mask.png,0.37294529999780934,1,11.703185684592045,243,2
52-148.png,52-148.png,ss,up,52-148_mask.png,0.24550220000674017,1,4.311490469647435,244,1
9_eyes.png,38_eyes.png,isod,up,9_eyes_mask.png,0.5494602999970084,1,3.992709259641317,245,2
103-135F.png,103-197F.png,sd,up,103-135F_mask.png,0.6918425999901956,0,6.8357455957761015,246,1
49-146.png,49-87.png,sd,up,49-146_mask.png,0.8875624000065727,0,8.607263960508302,247,1
38_eyes.png,38_eyes.png,isos,inv,38_eyes_mask.png,0.619529200004763,1,27.24339792884558,248,2
55_eyes.png,55_eyes.png,isos,inv,55_eyes_mask.png,0.7841697000112617,1,10.036553609986138,249,1
44-100.png,44-125.png,sd,inv,44-100_mask.png,0.5446202000021003,0,7.970863616012756,250,2
147_eyes.png,55_eyes.png,isod,up,147_eyes_mask.png,0.5064623999933247,1,5.0274402453675116,251,1
65-20F.png,41-20F.png,ds,inv,65-20F_mask.png,0.637814999994589,1,23.36370892508618,252,1
103-197F.png,103-197F.png,ss,up,103-197F_mask.png,0.7482964000082575,0,3.992709259641317,253,1
7-55.png,7-147.png,sd,up,7-55_mask.png,0.5501364999945508,0,7.381517178581321,254,2
125_eyes.png,125_eyes.png,isos,up,125_eyes_mask.png,0.5678014000004623,0,3.6974979636981815,255,2
65_eyes.png,13_eyes.png,isod,inv,65_eyes_mask.png,0.5999736999947345,1,27.24339792884558,256,2
147-25.png,146-25.png,ds,up,147-25_mask.png,0.6710916000010911,1,11.703185684592045,257,1
216_eyes.png,220_eyes.png,isod,inv,216_eyes_mask.png,0.5960486999974819,1,8.607263960508302,258,1
111-220F.png,192-216F.png,dd,up,111-220F_mask.png,0.6440071999968495,1,4.655723435152049,259,1
20-65F.png,208-65F.png,ds,inv,20-65F_mask.png,0.6095276000123704,1,21.636252618780404,260,1
128-96F.png,225-96F.png,ds,inv,128-96F_mask.png,0.6884288000001106,1,10.837880352311993,261,2
13-225F.png,96-128F.png,dd,up,13-225F_mask.png,0.6768562000070233,1,3.4241138792010055,262,2
146-7.png,147-25.png,dd,inv,146-7_mask.png,0.8334250999905635,0,7.970863616012756,263,1
100_eyes.png,100_eyes.png,isos,inv,100_eyes_mask.png,0.6637825999932829,0,7.970863616012756,264,1
17-38.png,125-9.png,dd,inv,17-38_mask.png,0.8290724999969825,1,10.036553609986138,265,2
123-125.png,123-100.png,sd,inv,123-125_mask.png,0.5956842000014149,0,20.036520266739068,266,1
25-147.png,7-147.png,ds,up,25-147_mask.png,0.6118121999897994,1,10.837880352311993,267,2
111-216F.png,111-216F.png,ss,up,111-216F_mask.png,0.46707640000386164,1,3.170943154762479,268,2
225_eyes.png,225_eyes.png,isos,up,225_eyes_mask.png,0.57621260000451,1,4.311490469647435,269,2
25-147.png,25-55.png,sd,inv,25-147_mask.png,0.6647161000000779,1,32.22908677181644,270,1
148_eyes.png,66_eyes.png,isod,up,148_eyes_mask.png,1.0061248999991221,1,10.992709259641316,271,2
13-225F.png,96-225F.png,ds,inv,13-225F_mask.png,0.5977177000022493,1,10.036553609986138,272,2
208_eyes.png,208_eyes.png,isos,up,208_eyes_mask.png,0.733719600000768,0,4.655723435152049,273,1
146-25.png,147-7.png,dd,inv,146-25_mask.png,0.6723342000041157,1,10.036553609986138,274,1
103_eyes.png,103_eyes.png,isos,up,103_eyes_mask.png,0.4611618000053568,1,12.428835233189812,275,1
131-94F.png,131-37F.png,sd,up,131-94F_mask.png,0.46634590000030585,1,16.294475034930333,276,2
25-147.png,7-55.png,dd,up,25-147_mask.png,0.9593767000042135,0,11.311490469647435,277,1
96-128F.png,13-128F.png,ds,up,96-128F_mask.png,0.5286696999974083,1,17.83788035231199,278,1
7-147.png,7-147.png,ss,inv,7-147_mask.png,0.5795126999873901,1,9.294475034930333,279,1
146-25.png,146-25.png,ss,up,146-25_mask.png,0.7001419000007445,1,3.170943154762479,280,2
49-87.png,49-146.png,sd,inv,49-87_mask.png,0.5919677999918349,0,16.294475034930333,281,2
208_eyes.png,20_eyes.png,isod,inv,208_eyes_mask.png,0.5357205000036629,1,17.83788035231199,282,1
52-148.png,52-148.png,ss,inv,52-148_mask.png,0.5620560999959707,1,16.294475034930333,283,2
13_eyes.png,13_eyes.png,isos,inv,13_eyes_mask.png,0.9235031999996863,1,23.36370892508618,284,2
20_eyes.png,208_eyes.png,isod,inv,20_eyes_mask.png,0.5321553999965545,1,28.636252618780404,285,2
65-208F.png,65-208F.png,ss,inv,65-208F_mask.png,0.5339879999955883,1,15.607263960508302,286,1
146-25.png,147-7.png,dd,up,146-25_mask.png,0.5283122999971965,1,9.93649126327576,287,2
111-220F.png,192-220F.png,ds,up,111-220F_mask.png,0.43009839998558164,1,10.837880352311993,288,1
46-8.png,46-93.png,sd,inv,46-8_mask.png,0.8766201000107685,1,25.229086771816444,289,1
46-93.png,2-93.png,ds,up,46-93_mask.png,0.5375397000025259,1,9.294475034930333,290,2
192_eyes.png,192_eyes.png,isos,inv,192_eyes_mask.png,0.4595956999983173,1,21.636252618780404,291,2
2_eyes.png,2_eyes.png,isos,inv,2_eyes_mask.png,0.4164046999940183,1,21.636252618780404,292,2
197-103F.png,197-192F.png,sd,up,197-103F_mask.png,0.43931980000343174,0,10.036553609986138,293,1
24-2.png,160-76.png,dd,inv,24-2_mask.png,0.7815935999969952,0,8.607263960508302,294,1
135-103F.png,197-192F.png,dd,up,135-103F_mask.png,0.45423350000055507,0,2.9364912632757605,295,2
17-38.png,17-9.png,sd,inv,17-38_mask.png,0.7239218000031542,1,9.294475034930333,296,2
103-197F.png,103-135F.png,sd,up,103-197F_mask.png,0.48626840001088567,0,7.970863616012756,297,2
160-2.png,160-2.png,ss,inv,160-2_mask.png,0.4186065000103554,1,9.294475034930333,298,2
76_eyes.png,2_eyes.png,isod,up,76_eyes_mask.png,0.481816900006379,1,5.428835233189813,299,1
125-9.png,17-38.png,dd,inv,125-9_mask.png,0.44630910000705626,0,10.837880352311993,300,1
20-13F.png,20-13F.png,ss,inv,20-13F_mask.png,0.5392861000000266,1,13.646572368403794,301,1
9_eyes.png,9_eyes.png,isos,up,9_eyes_mask.png,0.5656748000037624,0,3.992709259641317,302,2
197_eyes.png,135_eyes.png,isod,inv,197_eyes_mask.png,0.5905341999896336,0,10.837880352311993,303,1
37_eyes.png,94_eyes.png,isod,inv,37_eyes_mask.png,0.5263221000059275,0,21.636252618780404,304,2
123-100.png,123-100.png,ss,inv,123-100_mask.png,0.6005103000061354,1,12.637577710370472,305,1
65-208F.png,41-208F.png,ds,inv,65-208F_mask.png,0.5250852000026498,0,8.607263960508302,306,2
125-38.png,125-38.png,ss,up,125-38_mask.png,0.7915173000073992,1,4.311490469647435,307,1
197-192F.png,135-192F.png,ds,inv,197-192F_mask.png,0.5675606000004336,1,10.837880352311993,308,2
151-87.png,49-87.png,ds,up,151-87_mask.png,0.6885668000031728,1,11.703185684592045,309,2
25-55.png,25-55.png,ss,inv,25-55_mask.png,0.5328242000105092,1,7.970863616012756,310,2
25_eyes.png,25_eyes.png,isos,up,25_eyes_mask.png,0.8553090999921551,1,5.0274402453675116,311,1
129-37F.png,129-37F.png,ss,up,129-37F_mask.png,0.5888188000099035,1,3.4241138792010055,312,2
131-37F.png,129-37F.png,ds,inv,131-37F_mask.png,1.3729208999866387,1,23.36370892508618,313,1
44-125.png,44-100.png,sd,up,44-125_mask.png,0.7976827999955276,1,10.036553609986138,314,2
96-225F.png,13-225F.png,ds,up,96-225F_mask.png,0.6372773999901256,1,12.637577710370472,315,1
20_eyes.png,20_eyes.png,isos,inv,20_eyes_mask.png,0.579654400004074,1,15.9126704834961,316,1
7_eyes.png,7_eyes.png,isos,up,7_eyes_mask.png,0.7160944000061136,1,4.655723435152049,317,2
128_eyes.png,225_eyes.png,isod,up,128_eyes_mask.png,0.7890469999983907,1,4.311490469647435,318,2
100_eyes.png,100_eyes.png,isos,inv,100_eyes_mask.png,0.4611875999980839,1,13.646572368403794,319,1
13-128F.png,13-128F.png,ss,up,13-128F_mask.png,0.6178521000110777,1,4.311490469647435,320,1
8_eyes.png,8_eyes.png,isos,up,8_eyes_mask.png,0.4488182999921264,1,4.655723435152049,321,1
192-216F.png,111-220F.png,dd,inv,192-216F_mask.png,0.7502150000073016,1,7.381517178581321,322,2
146_eyes.png,87_eyes.png,isod,inv,146_eyes_mask.png,0.9758748000022024,0,11.703185684592045,323,1
94_eyes.png,37_eyes.png,isod,inv,94_eyes_mask.png,1.0638096000038786,1,23.36370892508618,324,2
13-128F.png,96-225F.png,dd,inv,13-128F_mask.png,0.6848100000061095,1,6.8357455957761015,325,2
96-128F.png,13-225F.png,dd,up,96-128F_mask.png,0.5930695999995805,1,3.170943154762479,326,2
146-7.png,146-7.png,ss,up,146-7_mask.png,1.0561754999944242,0,3.170943154762479,327,2
52-148.png,52-66.png,sd,inv,52-148_mask.png,0.38963620000868104,0,10.036553609986138,328,2
192-216F.png,111-220F.png,dd,up,192-216F_mask.png,0.493085299996892,1,3.992709259641317,329,1
55_eyes.png,147_eyes.png,isod,up,55_eyes_mask.png,0.6412390000041341,1,4.655723435152049,330,1
135-103F.png,135-192F.png,sd,up,135-103F_mask.png,0.9989309000084177,0,11.703185684592045,331,1
20_eyes.png,208_eyes.png,isod,up,20_eyes_mask.png,0.6709136999998009,1,4.311490469647435,332,2
197-103F.png,197-192F.png,sd,inv,197-103F_mask.png,0.5234362999908626,0,21.636252618780404,333,1
139-135F.png,103-135F.png,ds,inv,139-135F_mask.png,0.6215752999996766,1,25.229086771816444,334,1
20-13F.png,208-65F.png,dd,up,20-13F_mask.png,0.5804153999924893,1,3.992709259641317,335,1
111-216F.png,111-220F.png,sd,up,111-216F_mask.png,0.656817900002352,1,13.646572368403794,336,1
147-7.png,147-25.png,sd,inv,147-7_mask.png,0.7021789999998873,1,11.703185684592045,337,2
13-128F.png,13-128F.png,ss,inv,13-128F_mask.png,0.5134535999968648,1,6.330327047908198,338,2
96-128F.png,96-128F.png,ss,inv,96-128F_mask.png,0.4991987999965204,1,11.703185684592045,339,1
103-135F.png,103-135F.png,ss,inv,103-135F_mask.png,0.5986904999881517,1,5.862277928868478,340,2
145-148.png,52-148.png,ds,inv,145-148_mask.png,0.518012100001215,0,10.837880352311993,341,2
17-38.png,125-38.png,ds,inv,17-38_mask.png,0.4010755000053905,1,23.36370892508618,342,1
93_eyes.png,93_eyes.png,isos,up,93_eyes_mask.png,0.44082889999845065,1,4.311490469647435,343,1
41-20F.png,65-208F.png,dd,inv,41-20F_mask.png,0.4946300000010524,1,5.428835233189813,344,2
87_eyes.png,146_eyes.png,isod,inv,87_eyes_mask.png,0.562878799988539,1,23.36370892508618,345,2
9_eyes.png,9_eyes.png,isos,inv,9_eyes_mask.png,0.6920908000029158,1,21.636252618780404,346,2
17-38.png,17-9.png,sd,up,17-38_mask.png,0.4717030000028899,1,13.646572368403794,347,1
17-9.png,125-38.png,dd,inv,17-9_mask.png,0.5963484999956563,1,10.837880352311993,348,1
103_eyes.png,192_eyes.png,isod,up,103_eyes_mask.png,0.39632430000347085,0,4.311490469647435,349,1
216_eyes.png,216_eyes.png,isos,inv,216_eyes_mask.png,0.4283259000076214,1,15.9126704834961,350,1
94_eyes.png,37_eyes.png,isod,inv,94_eyes_mask.png,0.3791895999893313,0,13.646572368403794,351,1
93_eyes.png,8_eyes.png,isod,up,93_eyes_mask.png,0.49973370000952855,1,3.992709259641317,352,2
44-125.png,44-125.png,ss,up,44-125_mask.png,0.3910870999970939,1,3.4241138792010055,353,2
160-76.png,160-76.png,ss,up,160-76_mask.png,0.43900899999425747,1,3.6974979636981815,354,1
2-93.png,46-93.png,ds,up,2-93_mask.png,0.5804253999958746,0,8.607263960508302,355,2
44-100.png,123-100.png,ds,inv,44-100_mask.png,0.524339499999769,1,23.36370892508618,356,1
139-135F.png,139-197F.png,sd,up,139-135F_mask.png,0.598645399993984,1,11.703185684592045,357,2
30_eyes.png,30_eyes.png,isos,up,30_eyes_mask.png,0.4544591000012588,1,3.6974979636981815,358,2
13-128F.png,96-225F.png,dd,up,13-128F_mask.png,0.5076423999998951,1,3.6974979636981815,359,1
87_eyes.png,87_eyes.png,isos,inv,87_eyes_mask.png,0.4631476000067778,1,21.636252618780404,360,2
125-9.png,17-38.png,dd,up,125-9_mask.png,0.6125029000104405,0,3.170943154762479,361,2
225-30F.png,225-96F.png,sd,inv,225-30F_mask.png,0.5236298999952851,0,23.36370892508618,362,1
160-76.png,160-2.png,sd,inv,160-76_mask.png,0.3820160000032047,0,13.646572368403794,363,2
103_eyes.png,192_eyes.png,isod,inv,103_eyes_mask.png,0.4143159000086598,0,14.636252618780404,364,2
30_eyes.png,96_eyes.png,isod,inv,30_eyes_mask.png,0.5975864000065485,1,18.555068267735685,365,1
7-55.png,7-55.png,ss,up,7-55_mask.png,0.5243854000000283,1,3.4241138792010055,366,1
128-96F.png,128-96F.png,ss,up,128-96F_mask.png,0.533055299994885,1,3.4241138792010055,367,2
41-20F.png,41-20F.png,ss,inv,41-20F_mask.png,0.4469359000067925,1,10.837880352311993,368,1
7_eyes.png,25_eyes.png,isod,up,7_eyes_mask.png,0.4930102999933297,1,3.6974979636981815,369,2
7_eyes.png,7_eyes.png,isos,inv,7_eyes_mask.png,0.38494220000575297,1,10.183151257649243,370,1
208-13F.png,208-65F.png,sd,inv,208-13F_mask.png,0.3850798999919789,0,16.36370892508618,371,1
128-96F.png,225-30F.png,dd,inv,128-96F_mask.png,0.4893332000065129,1,3.0365536099861377,372,1
131-37F.png,129-37F.png,ds,up,131-37F_mask.png,0.45371679999516346,1,10.036553609986138,373,2
41-20F.png,65-208F.png,dd,up,41-20F_mask.png,0.5633428000001004,1,1.5,374,2
46-8.png,2-93.png,dd,up,46-8_mask.png,0.9559158000047319,1,1.5,375,1
44-100.png,44-125.png,sd,up,44-100_mask.png,0.6855483999970602,1,2.2944750349303327,376,2
160-76.png,24-76.png,ds,inv,160-76_mask.png,1.44971029998851,1,10.183151257649243,377,2
2_eyes.png,2_eyes.png,isos,up,2_eyes_mask.png,0.4472773000015877,1,4.655723435152049,378,1
208-13F.png,20-65F.png,dd,inv,208-13F_mask.png,0.5814164000039455,0,1.5,379,2
192_eyes.png,192_eyes.png,isos,up,192_eyes_mask.png,1.0619109000108438,1,1.5,380,2
151-146.png,49-146.png,ds,up,151-146_mask.png,0.6672517999977572,1,12.637577710370472,381,1
197-192F.png,135-192F.png,ds,up,197-192F_mask.png,0.9428423999925144,0,4.703185684592045,382,1
216_eyes.png,220_eyes.png,isod,up,216_eyes_mask.png,0.47303319998900406,0,1.5,383,1
55_eyes.png,147_eyes.png,isod,inv,55_eyes_mask.png,0.5603878000110853,1,21.636252618780404,384,2
160-2.png,160-76.png,sd,inv,160-2_mask.png,0.5937693000014406,1,23.36370892508618,385,1
151-146.png,151-146.png,ss,up,151-146_mask.png,0.47322620000340976,1,3.4241138792010055,386,1
25-55.png,7-55.png,ds,inv,25-55_mask.png,0.3983868000068469,1,17.183151257649243,387,2
192-220F.png,111-220F.png,ds,inv,192-220F_mask.png,0.4139173000003211,1,15.9126704834961,388,2
103-135F.png,103-197F.png,sd,inv,103-135F_mask.png,0.5232570000080159,0,14.736125994561542,389,2
139-135F.png,103-197F.png,dd,up,139-135F_mask.png,0.4223509000003105,1,3.170943154762479,390,1
147-25.png,146-7.png,dd,inv,147-25_mask.png,0.4693108000064967,0,5.428835233189813,391,2
20_eyes.png,20_eyes.png,isos,inv,20_eyes_mask.png,0.35441339999670163,1,17.183151257649243,392,1
220_eyes.png,216_eyes.png,isod,up,220_eyes_mask.png,0.4841193000029307,1,4.311490469647435,393,1
13_eyes.png,13_eyes.png,isos,inv,13_eyes_mask.png,0.3283993999939412,1,21.636252618780404,394,2
7_eyes.png,7_eyes.png,isos,up,7_eyes_mask.png,0.5709869000129402,0,3.4241138792010055,395,2
139-135F.png,139-135F.png,ss,up,139-135F_mask.png,0.5000938000011956,1,3.170943154762479,396,1
208-13F.png,20-13F.png,ds,inv,208-13F_mask.png,0.5036674000002677,1,23.36370892508618,397,1
145-66.png,145-66.png,ss,inv,145-66_mask.png,0.37130729999626055,1,10.036553609986138,398,1
135_eyes.png,197_eyes.png,isod,inv,135_eyes_mask.png,0.4523360000021057,0,14.736125994561542,399,1
49-87.png,49-87.png,ss,up,49-87_mask.png,0.4820154999906663,1,3.4241138792010055,400,2
151-146.png,151-146.png,ss,inv,151-146_mask.png,0.5098499000014272,1,10.036553609986138,401,1
7-55.png,25-147.png,dd,inv,7-55_mask.png,0.6155466999916825,0,6.330327047908198,402,2
66_eyes.png,148_eyes.png,isod,up,66_eyes_mask.png,0.5660437000042293,1,3.992709259641317,403,2
93_eyes.png,8_eyes.png,isod,inv,93_eyes_mask.png,0.4791620000032708,1,21.636252618780404,404,2
7_eyes.png,25_eyes.png,isod,inv,7_eyes_mask.png,0.4178382999962196,0,20.036520266739068,405,1
128-30F.png,225-30F.png,ds,up,128-30F_mask.png,0.5046215000038501,1,11.703185684592045,406,1
49-87.png,151-87.png,ds,up,49-87_mask.png,0.5153425000025891,1,9.294475034930333,407,2
147-25.png,147-7.png,sd,up,147-25_mask.png,0.47568370000226423,1,8.607263960508302,408,2
9_eyes.png,9_eyes.png,isos,inv,9_eyes_mask.png,0.3843114999908721,1,25.229086771816444,409,1
147-25.png,147-25.png,ss,up,147-25_mask.png,0.38465709998854436,1,3.170943154762479,410,2
2-8.png,2-93.png,sd,up,2-8_mask.png,0.44063190001179464,1,11.703185684592045,411,1
52-66.png,52-66.png,ss,inv,52-66_mask.png,0.4303333999996539,1,7.970863616012756,412,2
139-135F.png,103-135F.png,ds,up,139-135F_mask.png,0.3807715000002645,0,8.607263960508302,413,2
2-93.png,46-8.png,dd,up,2-93_mask.png,0.4852960999996867,0,3.170943154762479,414,2
96-128F.png,96-225F.png,sd,inv,96-128F_mask.png,0.5780043999984628,1,23.36370892508618,415,1
2-93.png,2-8.png,sd,inv,2-93_mask.png,0.4814087999984622,1,18.555068267735685,416,2
65-208F.png,65-20F.png,sd,up,65-208F_mask.png,0.5416562000027625,1,10.837880352311993,417,1
131-37F.png,129-94F.png,dd,up,131-37F_mask.png,0.47129750000021886,1,3.4241138792010055,418,2
13_eyes.png,65_eyes.png,isod,up,13_eyes_mask.png,0.468108500004746,1,3.6974979636981815,419,2
65_eyes.png,65_eyes.png,isos,inv,65_eyes_mask.png,0.35335820000909735,1,21.636252618780404,420,2
125_eyes.png,100_eyes.png,isod,up,125_eyes_mask.png,0.5310820000013337,1,4.311490469647435,421,1
123-125.png,44-125.png,ds,inv,123-125_mask.png,0.4616619000007631,1,23.36370892508618,422,1
128-96F.png,225-30F.png,dd,up,128-96F_mask.png,0.5229364000115311,0,3.170943154762479,423,1
66_eyes.png,66_eyes.png,isos,up,66_eyes_mask.png,0.5659455999993952,1,3.6974979636981815,424,2
96_eyes.png,96_eyes.png,isos,up,96_eyes_mask.png,0.47899079999479,0,3.992709259641317,425,1
225-30F.png,128-96F.png,dd,inv,225-30F_mask.png,0.5957731999951648,0,9.294475034930333,426,1
20-65F.png,208-65F.png,ds,up,20-65F_mask.png,0.4592343999975128,1,10.837880352311993,427,1
2_eyes.png,2_eyes.png,isos,up,2_eyes_mask.png,0.5447487999917939,1,4.655723435152049,428,1
123-125.png,44-100.png,dd,inv,123-125_mask.png,0.6026649999985239,1,10.837880352311993,429,1
146-7.png,146-25.png,sd,up,146-7_mask.png,0.522298799987766,1,10.036553609986138,430,2
139-197F.png,139-197F.png,ss,inv,139-197F_mask.png,0.42908909999823663,1,7.381517178581321,431,2
192-216F.png,111-216F.png,ds,inv,192-216F_mask.png,0.39529009998659603,1,23.36370892508618,432,1
129-94F.png,129-94F.png,ss,inv,129-94F_mask.png,0.45098770000913646,1,6.8357455957761015,433,2
192_eyes.png,192_eyes.png,isos,inv,192_eyes_mask.png,0.392762399991625,1,21.636252618780404,434,2
225-30F.png,225-96F.png,sd,up,225-30F_mask.png,0.5607581999938702,1,9.294475034930333,435,2
49-146.png,151-146.png,ds,up,49-146_mask.png,0.41798410000046715,1,10.036553609986138,436,1
93_eyes.png,93_eyes.png,isos,up,93_eyes_mask.png,0.4891803000064101,1,3.4241138792010055,437,2
125-38.png,17-38.png,ds,inv,125-38_mask.png,0.6534159000002546,1,15.9126704834961,438,2
94_eyes.png,37_eyes.png,isod,up,94_eyes_mask.png,0.5950426000053994,1,3.4241138792010055,439,2
24-76.png,160-76.png,ds,inv,24-76_mask.png,0.45081609999760985,1,14.736125994561542,440,2
131-94F.png,131-37F.png,sd,inv,131-94F_mask.png,0.4163466000027256,0,21.636252618780404,441,1
145-148.png,145-148.png,ss,up,145-148_mask.png,0.4552754000033019,1,3.4241138792010055,442,1
41-20F.png,65-20F.png,ds,up,41-20F_mask.png,0.4605901999893831,1,10.036553609986138,443,1
103_eyes.png,192_eyes.png,isod,up,103_eyes_mask.png,0.42598410000209697,0,4.311490469647435,444,1
123-125.png,44-100.png,dd,up,123-125_mask.png,0.6001923000003444,1,3.170943154762479,445,1
38_eyes.png,9_eyes.png,isod,inv,38_eyes_mask.png,0.4239604999893345,0,23.36370892508618,446,1
135-192F.png,135-103F.png,sd,up,135-192F_mask.png,0.5021727999992436,1,9.294475034930333,447,2
20-65F.png,20-65F.png,ss,inv,20-65F_mask.png,0.7779288000019733,1,10.036553609986138,448,1
44-100.png,44-100.png,ss,up,44-100_mask.png,0.8587067000044044,1,3.4241138792010055,449,2
65_eyes.png,65_eyes.png,isos,inv,65_eyes_mask.png,0.5840785999898799,1,20.036520266739068,450,2
197-192F.png,197-103F.png,sd,inv,197-192F_mask.png,0.6641630999947665,1,14.736125994561542,451,2
87_eyes.png,87_eyes.png,isos,up,87_eyes_mask.png,0.5654740999889327,0,5.0274402453675116,452,1
148_eyes.png,148_eyes.png,isos,up,148_eyes_mask.png,0.5743320999899879,1,3.170943154762479,453,2
197_eyes.png,135_eyes.png,isod,up,197_eyes_mask.png,0.5826839999936055,1,5.862277928868478,454,1
44-125.png,123-100.png,dd,inv,44-125_mask.png,0.1585653999936767,0,6.330327047908198,455,2
160-2.png,24-2.png,ds,inv,160-2_mask.png,0.6475833000004059,1,23.36370892508618,456,1
225-96F.png,225-96F.png,ss,up,225-96F_mask.png,0.7414380000118399,1,3.170943154762479,457,1
52-148.png,145-66.png,dd,up,52-148_mask.png,0.4548789999971632,1,3.170943154762479,458,2
146-7.png,146-7.png,ss,inv,146-7_mask.png,0.5242010000074515,1,10.036553609986138,459,1
38_eyes.png,38_eyes.png,isos,up,38_eyes_mask.png,0.3668733000085922,1,12.428835233189812,460,1
123-100.png,44-125.png,dd,up,123-100_mask.png,0.42402589999255724,0,3.170943154762479,461,2
17-9.png,125-9.png,ds,up,17-9_mask.png,0.5344862999918405,1,8.607263960508302,462,2
13-225F.png,13-128F.png,sd,inv,13-225F_mask.png,0.5288233000028413,1,20.646572368403795,463,2
148_eyes.png,148_eyes.png,isos,inv,148_eyes_mask.png,0.37163460000010673,1,29.418533354863488,464,1
24-2.png,160-2.png,ds,up,24-2_mask.png,0.5162272000015946,1,14.970863616012757,465,2
76_eyes.png,76_eyes.png,isos,inv,76_eyes_mask.png,0.4471771999960765,1,29.418533354863488,466,1
2-93.png,46-8.png,dd,inv,2-93_mask.png,0.6288013000012143,1,9.294475034930333,467,1
96_eyes.png,30_eyes.png,isod,inv,96_eyes_mask.png,0.6190726999921026,1,20.036520266739068,468,2
65-20F.png,65-208F.png,sd,up,65-20F_mask.png,0.249899499991443,0,9.294475034930333,469,1
197_eyes.png,135_eyes.png,isod,inv,197_eyes_mask.png,0.38346339999407064,0,24.183151257649243,470,2
123-100.png,44-125.png,dd,inv,123-100_mask.png,0.5519912000017939,0,16.294475034930333,471,1
197-192F.png,197-103F.png,sd,up,197-192F_mask.png,1.057175299996743,0,17.83788035231199,472,1
9_eyes.png,38_eyes.png,isod,inv,9_eyes_mask.png,0.5025751999928616,1,34.24339792884558,473,1
129-37F.png,129-94F.png,sd,inv,129-37F_mask.png,0.6101369000098202,1,30.36370892508618,474,1
135-103F.png,135-103F.png,ss,inv,135-103F_mask.png,0.7775995999982115,0,7.970863616012756,475,2
96-225F.png,13-128F.png,dd,up,96-225F_mask.png,0.6820968999963952,1,10.17094315476248,476,1
145-66.png,52-148.png,dd,inv,145-66_mask.png,0.9428511000005528,0,17.036553609986136,477,2
208-65F.png,208-65F.png,ss,up,208-65F_mask.png,0.6083772999991197,1,10.424113879201006,478,2
2_eyes.png,76_eyes.png,isod,up,2_eyes_mask.png,0.47176699999545235,1,10.17094315476248,479,2
135-192F.png,197-103F.png,dd,up,135-192F_mask.png,0.7622141000028932,1,3.4241138792010055,480,2
52-148.png,52-66.png,sd,up,52-148_mask.png,0.987469500003499,1,7.970863616012756,481,2
123-100.png,44-100.png,ds,up,123-100_mask.png,0.45804800000041723,1,10.837880352311993,482,1
131-37F.png,131-94F.png,sd,up,131-37F_mask.png,0.4224706000095466,0,7.970863616012756,483,2
208-65F.png,20-65F.png,ds,inv,208-65F_mask.png,0.3654275000008056,1,23.36370892508618,484,1
125-9.png,17-9.png,ds,inv,125-9_mask.png,0.36574550000659656,1,23.36370892508618,485,1
220_eyes.png,220_eyes.png,isos,up,220_eyes_mask.png,0.3027756999945268,1,5.428835233189813,486,1
30_eyes.png,30_eyes.png,isos,up,30_eyes_mask.png,0.36952459999884013,1,5.0274402453675116,487,1
147-7.png,146-7.png,ds,up,147-7_mask.png,0.47245709999697283,1,8.607263960508302,488,2
37_eyes.png,37_eyes.png,isos,inv,37_eyes_mask.png,0.2936203999997815,1,27.24339792884558,489,1
87_eyes.png,146_eyes.png,isod,up,87_eyes_mask.png,0.5138298999954714,1,5.0274402453675116,490,1
147-7.png,146-25.png,dd,up,147-7_mask.png,0.6767191999970237,1,3.170943154762479,491,1
13-225F.png,13-128F.png,sd,up,13-225F_mask.png,0.6174070999986725,1,10.036553609986138,492,1
147-7.png,146-7.png,ds,inv,147-7_mask.png,0.3280679000017699,1,13.646572368403794,493,2
13-128F.png,96-128F.png,ds,up,13-128F_mask.png,0.6107231999922078,0,8.607263960508302,494,2
76_eyes.png,2_eyes.png,isod,inv,76_eyes_mask.png,0.34615329999360256,0,17.183151257649243,495,2
135-103F.png,135-192F.png,sd,inv,135-103F_mask.png,0.5160089999990305,0,13.646572368403794,496,2
192-220F.png,111-216F.png,dd,up,192-220F_mask.png,0.31116369999654125,0,2.9364912632757605,497,1
20-13F.png,20-13F.png,ss,up,20-13F_mask.png,0.5060738999891328,1,3.170943154762479,498,1
208_eyes.png,20_eyes.png,isod,inv,208_eyes_mask.png,0.46168670000042766,1,21.636252618780404,499,2
44-125.png,44-125.png,ss,inv,44-125_mask.png,0.44243599999754224,1,9.294475034930333,500,1
225_eyes.png,128_eyes.png,isod,up,225_eyes_mask.png,0.8325277999974787,1,3.170943154762479,501,2
146-25.png,146-7.png,sd,inv,146-25_mask.png,0.8466152000037255,1,14.736125994561542,502,2
128-30F.png,225-96F.png,dd,inv,128-30F_mask.png,0.596941899988451,0,10.036553609986138,503,2
24-76.png,24-76.png,ss,up,24-76_mask.png,0.24468590000469703,1,3.170943154762479,504,2
145-148.png,52-66.png,dd,up,145-148_mask.png,0.5456448999902932,1,3.170943154762479,505,2
25_eyes.png,7_eyes.png,isod,inv,25_eyes_mask.png,0.4517868999973871,0,23.36370892508618,506,1
13-128F.png,13-225F.png,sd,up,13-128F_mask.png,0.5853543999983231,0,10.036553609986138,507,1
131-37F.png,129-94F.png,dd,inv,131-37F_mask.png,0.641387499999837,1,12.637577710370472,508,2
192_eyes.png,192_eyes.png,isos,up,192_eyes_mask.png,0.4234866999904625,1,3.170943154762479,509,2
139-135F.png,139-135F.png,ss,inv,139-135F_mask.png,0.48636930000793654,1,11.703185684592045,510,2
146_eyes.png,146_eyes.png,isos,inv,146_eyes_mask.png,0.4826238000096055,1,21.636252618780404,511,2
66_eyes.png,66_eyes.png,isos,inv,66_eyes_mask.png,0.2774663999880431,1,29.418533354863488,512,1
96_eyes.png,96_eyes.png,isos,inv,96_eyes_mask.png,0.3617030000023078,1,21.636252618780404,513,2
13-128F.png,13-225F.png,sd,inv,13-128F_mask.png,0.41895400000794325,0,23.36370892508618,514,1
46-93.png,46-93.png,ss,up,46-93_mask.png,0.8740244999935385,1,3.170943154762479,515,2
123-125.png,123-125.png,ss,up,123-125_mask.png,0.6140975000016624,1,3.170943154762479,516,1
65-208F.png,41-20F.png,dd,inv,65-208F_mask.png,0.5013537000049837,0,9.294475034930333,517,1
25_eyes.png,7_eyes.png,isod,up,25_eyes_mask.png,0.601067099996726,1,4.655723435152049,518,1
135-103F.png,197-192F.png,dd,inv,135-103F_mask.png,0.5286148999875877,0,10.036553609986138,519,1
208-65F.png,208-65F.png,ss,inv,208-65F_mask.png,1.6821143999986816,1,10.837880352311993,520,1
65_eyes.png,13_eyes.png,isod,up,65_eyes_mask.png,0.5344333999964874,1,2.9364912632757605,521,2
7-147.png,25-147.png,ds,up,7-147_mask.png,0.440655099999276,1,10.837880352311993,522,1
76_eyes.png,76_eyes.png,isos,up,76_eyes_mask.png,1.0546262999996543,0,2.9364912632757605,523,2
55_eyes.png,147_eyes.png,isod,inv,55_eyes_mask.png,0.7242875000083586,1,29.418533354863488,524,1
128-30F.png,225-30F.png,ds,inv,128-30F_mask.png,0.49458400000003166,1,13.646572368403794,525,2
20-65F.png,20-13F.png,sd,inv,20-65F_mask.png,0.40190110000548884,0,23.36370892508618,526,1
49-87.png,49-87.png,ss,inv,49-87_mask.png,0.4252822999987984,1,10.837880352311993,527,2
13-225F.png,13-225F.png,ss,inv,13-225F_mask.png,0.37089960000594147,1,10.036553609986138,528,2
38_eyes.png,9_eyes.png,isod,up,38_eyes_mask.png,0.4039216000091983,0,3.170943154762479,529,2
13_eyes.png,65_eyes.png,isod,inv,13_eyes_mask.png,0.507598499985761,1,29.418533354863488,530,1
145-148.png,52-66.png,dd,inv,145-148_mask.png,0.5750193999992916,1,10.036553609986138,531,2
192-220F.png,192-216F.png,sd,inv,192-220F_mask.png,0.551357200005441,1,23.36370892508618,532,1
129-37F.png,131-94F.png,dd,inv,129-37F_mask.png,0.5365586000116309,1,10.837880352311993,533,1
128-30F.png,225-96F.png,dd,up,128-30F_mask.png,0.4109284000005573,0,2.9364912632757605,534,2
55_eyes.png,55_eyes.png,isos,up,55_eyes_mask.png,0.4584115000034217,0,3.4241138792010055,535,2
151-87.png,49-87.png,ds,inv,151-87_mask.png,0.42357640000409447,1,23.36370892508618,536,1
52-66.png,52-148.png,sd,inv,52-66_mask.png,0.4303183000010904,0,13.646572368403794,537,2
197-103F.png,197-103F.png,ss,up,197-103F_mask.png,0.5158848999999464,1,2.9364912632757605,538,1
20_eyes.png,20_eyes.png,isos,up,20_eyes_mask.png,0.614926900001592,0,4.655723435152049,539,1
2_eyes.png,76_eyes.png,isod,inv,2_eyes_mask.png,0.5263030999922194,1,20.036520266739068,540,2
52-66.png,145-148.png,dd,up,52-66_mask.png,0.5049488999939058,1,2.9364912632757605,541,1
135-192F.png,197-103F.png,dd,inv,135-192F_mask.png,0.4925459999940358,1,10.036553609986138,542,1
160-76.png,160-2.png,sd,up,160-76_mask.png,0.6085273000062443,1,10.837880352311993,543,1
46-8.png,2-8.png,ds,up,46-8_mask.png,0.6313462999969488,0,9.294475034930333,544,2
52-66.png,145-66.png,ds,inv,52-66_mask.png,0.4858749999984866,1,23.36370892508618,545,1
208_eyes.png,208_eyes.png,isos,inv,208_eyes_mask.png,0.4582187000050908,1,18.555068267735685,546,2
37_eyes.png,37_eyes.png,isos,up,37_eyes_mask.png,0.6715714000019943,1,3.6974979636981815,547,2
128-96F.png,128-96F.png,ss,inv,128-96F_mask.png,0.555852200006484,1,10.036553609986138,548,1
197-192F.png,197-192F.png,ss,up,197-192F_mask.png,0.8056499999947846,1,3.170943154762479,549,2
25-147.png,25-147.png,ss,inv,25-147_mask.png,0.3971097000030568,0,3.0365536099861377,550,1
135-192F.png,135-192F.png,ss,up,135-192F_mask.png,0.6211813999980222,1,2.9364912632757605,551,1
125_eyes.png,100_eyes.png,isod,up,125_eyes_mask.png,0.4602082000055816,1,5.0274402453675116,552,1
13-225F.png,96-225F.png,ds,up,13-225F_mask.png,0.4735852000012528,1,10.837880352311993,553,2
41-208F.png,65-208F.png,ds,up,41-208F_mask.png,0.5259445999981835,1,10.837880352311993,554,1
225_eyes.png,225_eyes.png,isos,up,225_eyes_mask.png,0.49664140000822954,1,5.0274402453675116,555,1
128_eyes.png,128_eyes.png,isos,inv,128_eyes_mask.png,0.40455890000157524,1,27.24339792884558,556,1
103-135F.png,139-135F.png,ds,up,103-135F_mask.png,0.4279438000085065,0,10.036553609986138,557,1
225-30F.png,128-96F.png,dd,up,225-30F_mask.png,0.3625466000084998,0,3.170943154762479,558,2
197_eyes.png,197_eyes.png,isos,inv,197_eyes_mask.png,0.33993470000859816,1,23.36370892508618,559,1
2-93.png,2-93.png,ss,up,2-93_mask.png,0.2622345999989193,1,1.5,560,2
96-225F.png,96-225F.png,ss,inv,96-225F_mask.png,0.41112999999313615,1,9.294475034930333,561,2
225_eyes.png,128_eyes.png,isod,inv,225_eyes_mask.png,0.4505202000000281,0,17.183151257649243,562,2
49-87.png,49-146.png,sd,up,49-87_mask.png,0.45592769999348093,1,10.036553609986138,563,2
145-66.png,145-148.png,sd,inv,145-66_mask.png,0.541417200001888,0,16.36370892508618,564,1
17-9.png,17-38.png,sd,up,17-9_mask.png,0.4554420000058599,0,3.837880352311993,565,1
41-208F.png,65-20F.png,dd,inv,41-208F_mask.png,0.18910430000687484,0,1.607263960508302,566,2
24-2.png,160-2.png,ds,inv,24-2_mask.png,0.4133488999941619,1,14.736125994561542,567,2
9_eyes.png,38_eyes.png,isod,up,9_eyes_mask.png,1.4528862000006484,0,1.5,568,2
7-147.png,7-55.png,sd,up,7-147_mask.png,0.43437489999632817,0,3.0365536099861377,569,2
8_eyes.png,93_eyes.png,isod,inv,8_eyes_mask.png,0.4327092999883462,0,14.636252618780404,570,1
160-76.png,24-2.png,dd,up,160-76_mask.png,1.2871613000024809,0,1.5,571,1
30_eyes.png,30_eyes.png,isos,inv,30_eyes_mask.png,0.4914269000000786,1,14.636252618780404,572,2
37_eyes.png,94_eyes.png,isod,up,37_eyes_mask.png,0.6875295000063488,1,1.5,573,1
123-100.png,123-125.png,sd,inv,123-100_mask.png,0.6837403000099584,1,14.736125994561542,574,2
25-147.png,7-147.png,ds,inv,25-147_mask.png,0.5014421000087168,0,6.646572368403794,575,2
55_eyes.png,55_eyes.png,isos,inv,55_eyes_mask.png,0.4514381000044523,1,21.636252618780404,576,2
197-103F.png,135-192F.png,dd,up,197-103F_mask.png,0.544506200007163,1,3.4241138792010055,577,2
146-7.png,147-7.png,ds,up,146-7_mask.png,0.45865080000658054,1,10.036553609986138,578,2
208-65F.png,208-13F.png,sd,inv,208-65F_mask.png,0.3677275000081863,0,13.646572368403794,579,2
192-216F.png,192-216F.png,ss,up,192-216F_mask.png,0.43225209999945946,1,3.170943154762479,580,2
46-93.png,46-8.png,sd,up,46-93_mask.png,0.47838689999480266,1,9.294475034930333,581,2
128_eyes.png,225_eyes.png,isod,inv,128_eyes_mask.png,0.45091889999457635,1,21.636252618780404,582,1
146_eyes.png,87_eyes.png,isod,inv,146_eyes_mask.png,0.43847910000476986,1,20.036520266739068,583,2
151-87.png,49-146.png,dd,inv,151-87_mask.png,0.3881738000054611,0,8.607263960508302,584,2
216_eyes.png,216_eyes.png,isos,inv,216_eyes_mask.png,0.3243975000077626,1,21.636252618780404,585,1
135_eyes.png,135_eyes.png,isos,inv,135_eyes_mask.png,0.21334280000883155,1,18.555068267735685,586,2
24-2.png,24-2.png,ss,inv,24-2_mask.png,0.4523195000074338,1,10.036553609986138,587,2
145-148.png,145-66.png,sd,inv,145-148_mask.png,0.4016513000096893,1,23.36370892508618,588,1
128-96F.png,225-96F.png,ds,up,128-96F_mask.png,0.5209463000064716,1,9.294475034930333,589,2
94_eyes.png,94_eyes.png,isos,up,94_eyes_mask.png,0.3718361999926856,1,3.4241138792010055,590,2
66_eyes.png,148_eyes.png,isod,up,66_eyes_mask.png,0.4449356999975862,0,4.655723435152049,591,1
160-2.png,160-76.png,sd,up,160-2_mask.png,0.5946669999975711,0,10.837880352311993,592,1
37_eyes.png,37_eyes.png,isos,inv,37_eyes_mask.png,0.3546245000034105,1,21.636252618780404,593,1
65-20F.png,65-20F.png,ss,up,65-20F_mask.png,0.26776580000296235,1,2.9364912632757605,594,1
65-20F.png,41-208F.png,dd,inv,65-20F_mask.png,0.4886433999927249,1,10.036553609986138,595,2
148_eyes.png,66_eyes.png,isod,up,148_eyes_mask.png,0.48481080000055954,1,5.428835233189813,596,1
146-25.png,147-25.png,ds,inv,146-25_mask.png,0.44025309999415185,1,23.36370892508618,597,1
216_eyes.png,220_eyes.png,isod,up,216_eyes_mask.png,0.5506412999966415,1,3.4241138792010055,598,2
208-65F.png,20-13F.png,dd,up,208-65F_mask.png,0.16800059999513905,0,2.7193741793648707,599,1
111-216F.png,111-216F.png,ss,inv,111-216F_mask.png,0.3688107000052696,1,10.036553609986138,600,1
225-30F.png,128-30F.png,ds,up,225-30F_mask.png,0.457525000005262,1,11.703185684592045,601,1
2-93.png,2-8.png,sd,up,2-93_mask.png,0.5072240000008605,1,9.294475034930333,602,2
145-148.png,145-148.png,ss,inv,145-148_mask.png,0.5099103000102332,0,9.294475034930333,603,1
25-147.png,25-55.png,sd,up,25-147_mask.png,0.4328153999958886,0,11.703185684592045,604,1
148_eyes.png,148_eyes.png,isos,up,148_eyes_mask.png,0.5270069999969564,1,5.0274402453675116,605,1
192_eyes.png,103_eyes.png,isod,inv,192_eyes_mask.png,0.6093494000087958,1,20.036520266739068,606,1
96-128F.png,13-128F.png,ds,inv,96-128F_mask.png,0.4883283999952255,1,14.736125994561542,607,2
103-135F.png,139-135F.png,ds,inv,103-135F_mask.png,0.499327199999243,1,23.36370892508618,608,1
76_eyes.png,2_eyes.png,isod,up,76_eyes_mask.png,0.46244319999823347,1,3.4241138792010055,609,2
24-76.png,160-2.png,dd,up,24-76_mask.png,0.651412999999593,0,2.9364912632757605,610,1
76_eyes.png,76_eyes.png,isos,up,76_eyes_mask.png,0.3533097000035923,1,3.170943154762479,611,2
46-93.png,2-93.png,ds,inv,46-93_mask.png,0.49870959999680053,1,14.736125994561542,612,2
145-148.png,52-148.png,ds,up,145-148_mask.png,0.5418846000102349,1,12.637577710370472,613,1
25-55.png,25-55.png,ss,up,25-55_mask.png,0.08764499999233522,1,3.170943154762479,614,2
125_eyes.png,100_eyes.png,isod,inv,125_eyes_mask.png,0.31549700000323355,0,18.555068267735685,615,2
24-76.png,24-2.png,sd,inv,24-76_mask.png,0.3663090999907581,0,14.736125994561542,616,2
49-146.png,151-87.png,dd,up,49-146_mask.png,0.4621861000050558,1,3.170943154762479,617,2
208-13F.png,208-13F.png,ss,up,208-13F_mask.png,0.4727978000009898,1,3.170943154762479,618,1
111-220F.png,192-216F.png,dd,inv,111-220F_mask.png,0.38953259999107104,1,10.036553609986138,619,1
128_eyes.png,128_eyes.png,isos,up,128_eyes_mask.png,0.4045600000099512,1,5.0274402453675116,620,1
49-146.png,49-87.png,sd,inv,49-146_mask.png,0.4035034000116866,1,23.36370892508618,621,1
46-93.png,46-93.png,ss,inv,46-93_mask.png,0.3940979999897536,0,9.294475034930333,622,2
131-94F.png,129-37F.png,dd,inv,131-94F_mask.png,0.5378702999878442,1,10.036553609986138,623,1
24-76.png,160-2.png,dd,inv,24-76_mask.png,0.5506220999959623,1,10.036553609986138,624,1
13-128F.png,96-128F.png,ds,inv,13-128F_mask.png,0.35940319999645,1,23.36370892508618,625,1
208-13F.png,20-13F.png,ds,up,208-13F_mask.png,0.4804514000134077,0,8.607263960508302,626,2
87_eyes.png,146_eyes.png,isod,inv,87_eyes_mask.png,0.46893600000476,1,20.036520266739068,627,1
129-94F.png,131-94F.png,ds,up,129-94F_mask.png,0.38556889999017585,1,11.703185684592045,628,1
66_eyes.png,66_eyes.png,isos,inv,66_eyes_mask.png,0.34555969999928493,1,21.636252618780404,629,2
8_eyes.png,93_eyes.png,isod,inv,8_eyes_mask.png,0.32907649999833666,0,18.555068267735685,630,1
20-65F.png,20-65F.png,ss,up,20-65F_mask.png,0.5235757000045851,1,3.170943154762479,631,2
128-30F.png,128-96F.png,sd,inv,128-30F_mask.png,0.5499190999980783,1,23.36370892508618,632,1
208-13F.png,208-65F.png,sd,up,208-13F_mask.png,0.5031013999978313,1,9.294475034930333,633,2
151-146.png,49-87.png,dd,inv,151-146_mask.png,0.5705393999960506,1,10.837880352311993,634,2
111-220F.png,111-220F.png,ss,up,111-220F_mask.png,0.45919660000072327,1,2.9364912632757605,635,1
52-66.png,52-148.png,sd,up,52-66_mask.png,0.8081668999948306,0,11.703185684592045,636,1
147_eyes.png,147_eyes.png,isos,inv,147_eyes_mask.png,0.51127699999779,1,21.636252618780404,637,1
192-216F.png,192-220F.png,sd,up,192-216F_mask.png,0.4815662000037264,1,9.294475034930333,638,2
192-216F.png,192-216F.png,ss,inv,192-216F_mask.png,0.46988319999945816,1,10.036553609986138,639,2
25-55.png,7-147.png,dd,inv,25-55_mask.png,0.4485962000035215,1,10.036553609986138,640,1
20_eyes.png,208_eyes.png,isod,inv,20_eyes_mask.png,0.5822042000072543,1,21.636252618780404,641,2
7-147.png,25-55.png,dd,up,7-147_mask.png,1.1902138000004925,1,2.9364912632757605,642,1
41-208F.png,41-208F.png,ss,up,41-208F_mask.png,0.5000829000055091,1,2.9364912632757605,643,1
13-225F.png,13-225F.png,ss,up,13-225F_mask.png,0.5259975000080885,1,2.9364912632757605,644,2
100_eyes.png,100_eyes.png,isos,up,100_eyes_mask.png,0.6962229999917326,1,3.170943154762479,645,2
135_eyes.png,135_eyes.png,isos,up,135_eyes_mask.png,0.5629998000076739,1,3.170943154762479,646,2
135_eyes.png,135_eyes.png,isos,inv,135_eyes_mask.png,0.5164425000111805,1,20.036520266739068,647,2
46-8.png,46-8.png,ss,inv,46-8_mask.png,0.5271854000020539,1,9.294475034930333,648,1
131-94F.png,129-37F.png,dd,up,131-94F_mask.png,0.6015632999915397,1,9.93649126327576,649,1
147_eyes.png,55_eyes.png,isod,up,147_eyes_mask.png,1.2008528000005754,1,4.655723435152049,650,1
111-220F.png,111-220F.png,ss,inv,111-220F_mask.png,0.4003441999957431,1,16.294475034930333,651,1
7-55.png,7-55.png,ss,inv,7-55_mask.png,0.6316766999952961,1,10.036553609986138,652,2
146-7.png,147-25.png,dd,up,146-7_mask.png,0.4460504000016954,0,2.9364912632757605,653,2
49-146.png,151-146.png,ds,inv,49-146_mask.png,0.49984309999854304,1,15.9126704834961,654,2
30_eyes.png,96_eyes.png,isod,up,30_eyes_mask.png,0.559370899994974,1,4.655723435152049,655,1
147-25.png,147-7.png,sd,inv,147-25_mask.png,0.5363030000007711,1,23.36370892508618,656,1
41-208F.png,65-208F.png,ds,inv,41-208F_mask.png,0.41664540000783745,1,30.36370892508618,657,1
17-9.png,17-38.png,sd,inv,17-9_mask.png,0.5913531000114745,1,14.736125994561542,658,2
128_eyes.png,128_eyes.png,isos,inv,128_eyes_mask.png,0.40752180000708904,1,28.636252618780404,659,1
7-55.png,25-55.png,ds,up,7-55_mask.png,0.45489769999403507,1,16.294475034930333,660,2
65-20F.png,41-20F.png,ds,up,65-20F_mask.png,0.5321835999930045,1,12.637577710370472,661,1
94_eyes.png,94_eyes.png,isos,up,94_eyes_mask.png,0.5101318000088213,1,4.655723435152049,662,1
147-7.png,147-25.png,sd,up,147-7_mask.png,0.6172116999950958,0,19.637577710370472,663,1
94_eyes.png,37_eyes.png,isod,up,94_eyes_mask.png,0.6002093000133755,1,3.170943154762479,664,2
46-93.png,2-8.png,dd,up,46-93_mask.png,0.43166640000708867,1,10.17094315476248,665,2
111-220F.png,192-220F.png,ds,inv,111-220F_mask.png,0.4783975000027567,1,14.736125994561542,666,2
147-7.png,146-25.png,dd,inv,147-7_mask.png,0.466967599990312,0,16.294475034930333,667,2
25_eyes.png,7_eyes.png,isod,inv,25_eyes_mask.png,0.41563309999764897,0,25.555068267735685,668,2
38_eyes.png,38_eyes.png,isos,up,38_eyes_mask.png,0.5266514999966603,1,11.311490469647435,669,1
30_eyes.png,96_eyes.png,isod,up,30_eyes_mask.png,0.6414580999989994,1,9.93649126327576,670,2
146-7.png,146-25.png,sd,inv,146-7_mask.png,0.6070207000011578,1,21.73612599456154,671,2
103-197F.png,139-135F.png,dd,inv,103-197F_mask.png,0.752936699995189,1,9.294475034930333,672,1
55_eyes.png,55_eyes.png,isos,up,55_eyes_mask.png,0.5945095000060974,0,2.9364912632757605,673,2
147_eyes.png,147_eyes.png,isos,up,147_eyes_mask.png,0.5222918000072241,1,4.311490469647435,674,1
192_eyes.png,103_eyes.png,isod,up,192_eyes_mask.png,0.5229385999991791,1,3.170943154762479,675,2
148_eyes.png,148_eyes.png,isos,inv,148_eyes_mask.png,0.4140422999917064,1,21.636252618780404,676,1
2_eyes.png,76_eyes.png,isod,inv,2_eyes_mask.png,0.4926008000038564,1,18.555068267735685,677,2
25_eyes.png,25_eyes.png,isos,inv,25_eyes_mask.png,0.46331950000603683,1,18.555068267735685,678,2
131-37F.png,131-37F.png,ss,inv,131-37F_mask.png,0.47627769999962766,0,9.294475034930333,679,1
8_eyes.png,8_eyes.png,isos,inv,8_eyes_mask.png,0.44140349999361206,1,21.636252618780404,680,1
49-146.png,49-146.png,ss,up,49-146_mask.png,0.438539499999024,1,2.9364912632757605,681,1
24-2.png,160-76.png,dd,up,24-2_mask.png,0.4605468999943696,0,3.170943154762479,682,2
160-76.png,24-76.png,ds,up,160-76_mask.png,0.46570519999659155,1,9.294475034930333,683,2
17-38.png,17-38.png,ss,inv,17-38_mask.png,0.5184483000048203,1,10.036553609986138,684,1
135-192F.png,135-103F.png,sd,inv,135-192F_mask.png,0.4487395000032848,1,14.736125994561542,685,2
46-8.png,46-8.png,ss,up,46-8_mask.png,0.4296287999895867,1,3.4241138792010055,686,2
145-66.png,145-148.png,sd,up,145-66_mask.png,1.1798187999957008,0,8.607263960508302,687,2
151-87.png,151-146.png,sd,inv,151-87_mask.png,0.6121789000026183,0,23.36370892508618,688,1
94_eyes.png,94_eyes.png,isos,inv,94_eyes_mask.png,0.5157469999976456,1,17.183151257649243,689,2
25-147.png,7-55.png,dd,inv,25-147_mask.png,0.6141970999888144,1,9.294475034930333,690,2
151-146.png,49-87.png,dd,up,151-146_mask.png,0.6053353000024799,1,3.170943154762479,691,2
30_eyes.png,96_eyes.png,isod,inv,30_eyes_mask.png,0.6530187999887858,0,20.036520266739068,692,1
129-37F.png,131-37F.png,ds,inv,129-37F_mask.png,0.38618119999591727,0,23.36370892508618,693,1
44-100.png,44-100.png,ss,inv,44-100_mask.png,0.4421817000111332,1,9.294475034930333,694,2
20-65F.png,208-13F.png,dd,inv,20-65F_mask.png,0.6478120999963721,0,8.607263960508302,695,2
25-55.png,25-147.png,sd,inv,25-55_mask.png,0.4695279000006849,1,23.36370892508618,696,1
129-94F.png,131-94F.png,ds,inv,129-94F_mask.png,0.7224929999938468,1,13.646572368403794,697,2
52-148.png,145-148.png,ds,up,52-148_mask.png,0.7658029000012903,1,9.294475034930333,698,2
131-94F.png,129-94F.png,ds,up,131-94F_mask.png,0.7178672000009101,1,12.637577710370472,699,1
129-94F.png,129-37F.png,sd,up,129-94F_mask.png,0.4409704999998212,1,11.703185684592045,700,1
123-100.png,123-100.png,ss,up,123-100_mask.png,0.6545245000015711,1,3.170943154762479,701,2
146_eyes.png,87_eyes.png,isod,up,146_eyes_mask.png,0.6443404000019655,0,3.170943154762479,702,2
25-55.png,7-147.png,dd,up,25-55_mask.png,0.537711600001785,0,2.7193741793648707,703,1
100_eyes.png,125_eyes.png,isod,inv,100_eyes_mask.png,0.7561325999995461,1,17.183151257649243,704,2
192-216F.png,111-216F.png,ds,up,192-216F_mask.png,0.5895578000054229,1,11.703185684592045,705,1
145-66.png,52-148.png,dd,up,145-66_mask.png,0.7655674999987241,1,2.9364912632757605,706,1
65_eyes.png,65_eyes.png,isos,up,65_eyes_mask.png,0.47046870000485796,0,4.311490469647435,707,1
2-93.png,46-93.png,ds,inv,2-93_mask.png,0.5947974000009708,1,23.36370892508618,708,1
2-93.png,2-93.png,ss,inv,2-93_mask.png,0.7308432999998331,1,10.036553609986138,709,2
49-87.png,151-87.png,ds,inv,49-87_mask.png,0.9015761000046041,1,13.646572368403794,710,2
7-147.png,25-55.png,dd,inv,7-147_mask.png,0.657198699991568,1,9.294475034930333,711,1
128_eyes.png,225_eyes.png,isod,inv,128_eyes_mask.png,0.5184195000038017,1,21.636252618780404,712,1
8_eyes.png,93_eyes.png,isod,up,8_eyes_mask.png,0.6494447000004584,1,4.655723435152049,713,1
41-208F.png,41-20F.png,sd,up,41-208F_mask.png,0.5349035999970511,0,9.294475034930333,714,2
128-30F.png,128-30F.png,ss,up,128-30F_mask.png,0.5692035000101896,1,2.9364912632757605,715,1
37_eyes.png,94_eyes.png,isod,up,37_eyes_mask.png,0.46619429999554995,1,4.655723435152049,716,1
135_eyes.png,135_eyes.png,isos,up,135_eyes_mask.png,0.43105949999880977,1,3.170943154762479,717,2
123-100.png,123-125.png,sd,up,123-100_mask.png,0.5017438999930164,1,11.703185684592045,718,1
225-96F.png,225-30F.png,sd,inv,225-96F_mask.png,0.44107219998841174,1,13.646572368403794,719,2
7-55.png,25-55.png,ds,inv,7-55_mask.png,0.4936691999901086,1,23.36370892508618,720,1
139-197F.png,103-197F.png,ds,up,139-197F_mask.png,0.4896029999945313,1,11.703185684592045,721,1
41-208F.png,65-20F.png,dd,up,41-208F_mask.png,0.5738491000083741,1,3.170943154762479,722,2
220_eyes.png,216_eyes.png,isod,up,220_eyes_mask.png,0.8384223000030033,1,4.311490469647435,723,1
192-220F.png,111-220F.png,ds,up,192-220F_mask.png,0.4598162000038428,1,10.036553609986138,724,2
225-96F.png,225-30F.png,sd,up,225-96F_mask.png,0.48087650000525173,0,9.294475034930333,725,2
100_eyes.png,125_eyes.png,isod,inv,100_eyes_mask.png,0.6694446000037715,1,17.183151257649243,726,2
44-125.png,123-125.png,ds,inv,44-125_mask.png,0.5220514999964507,1,23.36370892508618,727,1
125-9.png,125-9.png,ss,inv,125-9_mask.png,0.6046475000039209,1,9.294475034930333,728,2
25_eyes.png,25_eyes.png,isos,inv,25_eyes_mask.png,0.42034070000227075,1,17.183151257649243,729,2
103_eyes.png,103_eyes.png,isos,up,103_eyes_mask.png,0.5314576999953715,1,3.170943154762479,730,2
125-38.png,125-9.png,sd,inv,125-38_mask.png,0.60584459999518,0,23.36370892508618,731,1
220_eyes.png,220_eyes.png,isos,inv,220_eyes_mask.png,0.5975497999897925,0,21.636252618780404,732,1
96-225F.png,13-128F.png,dd,inv,96-225F_mask.png,0.45290879999811295,1,9.294475034930333,733,1
123-125.png,123-100.png,sd,up,123-125_mask.png,0.9545012000016868,1,10.036553609986138,734,2
96_eyes.png,30_eyes.png,isod,inv,96_eyes_mask.png,0.8119662000099197,1,23.36370892508618,735,1
8_eyes.png,8_eyes.png,isos,up,8_eyes_mask.png,0.5469486000074539,1,4.311490469647435,736,1
197_eyes.png,135_eyes.png,isod,up,197_eyes_mask.png,0.45982920000096783,0,3.170943154762479,737,2
197-192F.png,197-192F.png,ss,inv,197-192F_mask.png,0.48060549999354407,1,9.294475034930333,738,1
225-96F.png,128-30F.png,dd,inv,225-96F_mask.png,0.5890044999978272,1,9.294475034930333,739,2
24-76.png,24-76.png,ss,inv,24-76_mask.png,0.5559906999988016,1,9.294475034930333,740,1
7-55.png,25-147.png,dd,up,7-55_mask.png,0.7735805000120308,1,2.9364912632757605,741,1
197-103F.png,135-192F.png,dd,inv,197-103F_mask.png,0.4459816999878967,1,2.2944750349303327,742,1
192-216F.png,192-220F.png,sd,inv,192-216F_mask.png,0.5799698000046192,1,13.646572368403794,743,2
24-2.png,24-76.png,sd,inv,24-2_mask.png,0.6361968999990495,0,13.646572368403794,744,2
65-208F.png,41-208F.png,ds,up,65-208F_mask.png,0.49824669999361504,0,3.0365536099861377,745,2
100_eyes.png,125_eyes.png,isod,up,100_eyes_mask.png,0.5663462999946205,1,4.311490469647435,746,1
160-2.png,160-2.png,ss,up,160-2_mask.png,0.767255099999602,1,2.7193741793648707,747,1
96_eyes.png,30_eyes.png,isod,up,96_eyes_mask.png,0.600425600001472,0,3.4241138792010055,748,2
24-76.png,24-2.png,sd,up,24-76_mask.png,0.6561274999985471,1,11.703185684592045,749,1
111-216F.png,192-216F.png,ds,inv,111-216F_mask.png,0.8052117000042927,1,13.646572368403794,750,2
145-66.png,52-66.png,ds,up,145-66_mask.png,0.5566620000026887,1,10.837880352311993,751,1
103-135F.png,139-197F.png,dd,up,103-135F_mask.png,0.47024510000483133,1,2.9364912632757605,752,2
146_eyes.png,146_eyes.png,isos,inv,146_eyes_mask.png,0.4994187999982387,1,17.183151257649243,753,2
76_eyes.png,2_eyes.png,isod,inv,76_eyes_mask.png,0.5571539999946253,1,10.183151257649243,754,2
93_eyes.png,93_eyes.png,isos,inv,93_eyes_mask.png,0.5265885000117123,1,23.36370892508618,755,1
147-7.png,147-7.png,ss,up,147-7_mask.png,0.585359899996547,1,2.7193741793648707,756,1
151-87.png,151-87.png,ss,inv,151-87_mask.png,0.4655789999960689,1,9.294475034930333,757,2
103-197F.png,139-135F.png,dd,up,103-197F_mask.png,0.14236290000553709,1,1.5,758,1
225-30F.png,225-30F.png,ss,up,225-30F_mask.png,0.6323772000032477,1,2.9364912632757605,759,2
44-100.png,123-125.png,dd,inv,44-100_mask.png,0.3505882000026759,0,1.607263960508302,760,2
146-25.png,146-7.png,sd,up,146-25_mask.png,0.4399000000121305,0,3.837880352311993,761,1
220_eyes.png,220_eyes.png,isos,up,220_eyes_mask.png,0.24626400000124704,0,1.5,762,2
103-197F.png,139-197F.png,ds,inv,103-197F_mask.png,0.5321716999897035,1,6.646572368403794,763,2
125_eyes.png,100_eyes.png,isod,inv,125_eyes_mask.png,0.5265012000018032,1,14.636252618780404,764,1
192-220F.png,192-220F.png,ss,up,192-220F_mask.png,0.21736650000093505,1,1.5,765,2
13_eyes.png,13_eyes.png,isos,up,13_eyes_mask.png,0.4402736000047298,1,1.5,766,1
103-197F.png,103-135F.png,sd,inv,103-197F_mask.png,0.5821779999969294,0,16.36370892508618,767,1
